File: constrainednmf/example_data/BaTiO3_xrd_ramp/BTO_320K_tth.xy
0.000000000000000000e+00 0.000644942
3 0.000665995
6 0.000824827
9 0.00274553
12 0.0123716
15 0.0141273
18 0.0133646
21 0.012636
24 0.0130269
27 0.0128758
30 0.0104261
33 0.00398441
36 0.00276082
39 0.00272672
42 0.00288469
45 0.00284838
48 0.00286028
51 0.00278076
54 0.00281881
57 0.00285991
60 0.00285961
63 0.00300416
66 0.00292984
69 0.0030408
72 0.0030729
75 0.00314382
78 0.00326813
81 0.00342247
84 0.00348506
87 0.0035545
90 0.00353835
93 0.00345244
96 0.00348701
99 0.00342729
102 0.00340078
105 0.00342047
108 0.00336077
111 0.00339519
114 0.00343648
117 0.00341521
120 0.00337868
123 0.00336661
126 0.00333811
129 0.00345252
132 0.00343952
135 0.00336272
138 0.00343521
141 0.00342844
144 0.00338417
147 0.00338606
150 0.00334812
153 0.00337197
156 0.00331756
159 0.00331129
162 0.00334295
165 0.0032835
168 0.0033217
171 0.00330751
174 0.00316086
177 0.00317528
180 0.00322563
183 0.00313686
186 0.00309804
189 0.00311344
192 0.00311066
195 0.00308592
198 0.00312639
201 0.00304655
204 0.00295228
207 0.0029647
210 0.00296868
213 0.00292605
216 0.00297375
219 0.00298186
222 0.00294091
225 0.00301475
228 0.00292914
231 0.00298858
234 0.00299363
237 0.00293122
240 0.00300009
243 0.00294854
246 0.00302564
249 0.00301855
252 0.00302677
255 0.00310977
258 0.00308312
261 0.00306592
264 0.00312373
267 0.00317517
270 0.00311003
273 0.00316738
276 0.00321559
279 0.00337188
282 0.00351915
285 0.00350467
288 0.00355919
291 0.00361305
294 0.00347412
297 0.00329657
300 0.0031574
303 0.00297552
306 0.00292131
309 0.00283117
312 0.00283737
315 0.00285426
318 0.00292503
321 0.0030837
324 0.00383484
327 0.00747648
330 0.0372489
333 0.103128
336 0.0718246
339 0.010156
342 0.00371072
345 0.0025761
348 0.0021418
351 0.00203307
354 0.00219733
357 0.00305067
360 0.00501658
363 0.00404217
366 0.00254561
369 0.00167459
372 0.00139726
375 0.00129883
378 0.00123105
381 0.00138261
384 0.0013314
387 0.00139242
390 0.00121804
393 0.0013299
396 0.00134722
399 0.00130173
402 0.00128855
405 0.00131939
408 0.00140154
411 0.00168139
414 0.00181965
417 0.001789
420 0.00156613
423 0.00174981
426 0.00184621
429 0.00163927
432 0.00178555
435 0.00187474
438 0.00210883
441 0.00234773
444 0.00258013
447 0.00289075
450 0.00344646
453 0.00422777
456 0.00509312
459 0.0069124
462 0.0103873
465 0.021232
468 0.084928
471 0.679167
474 0.814811
477 0.140918
480 0.0246845
483 0.0107089
486 0.00685734
489 0.00503501
492 0.00363991
495 0.00267317
498 0.00232011
501 0.00192125
504 0.001955
507 0.00254857
510 0.00287212
513 0.002596
516 0.00191449
519 0.00116818
522 0.000742594
525 0.000483354
528 0.000493282
531 0.000462284
534 0.000460235
537 0.000388095
540 0.000414781
543 0.000476049
546 0.00046492
549 0.000566155
552 0.000578753
555 0.000864316
558 0.000983382
561 0.00134104
564 0.0018246
567 0.00250446
570 0.00413954
573 0.0105019
576 0.0621493
579 0.382289
582 0.128635
585 0.0148873
588 0.00525982
591 0.00299714
594 0.0020723
597 0.00151971
600 0.0013723
603 0.00115714
606 0.00086843
609 0.000801072
612 0.000817533
615 0.000855085
618 0.000823533
621 0.00143292
624 0.00222526
627 0.00203871
630 0.00196121
633 0.0016582
636 0.00191463
639 0.00203367
642 0.00180828
645 0.00209166
648 0.00272847
651 0.00381402
654 0.00580205
657 0.0092359
660 0.0199975
663 0.0807729
666 0.190823
669 0.230101
672 0.345114
675 0.0690363
678 0.0162209
681 0.00761346
684 0.00505285
687 0.00392131
690 0.00402508
693 0.00348193
696 0.00239944
699 0.00182555
702 0.00132497
705 0.00134617
708 0.00131875
711 0.000973148
714 0.000956416
717 0.00100866
720 0.00109072
723 0.00136931
726 0.00144619
729 0.0014179
732 0.00185364
735 0.00248871
738 0.00400217
741 0.0105487
744 0.0477984
747 0.0868481
750 0.125364
753 0.0426097
756 0.00798191
759 0.00308337
762 0.00204711
765 0.00134697
768 0.00144349
771 0.00127932
774 0.00118083
777 0.00134592
780 0.00122722
783 0.0015616
786 0.00168065
789 0.00208281
792 0.00232672
795 0.00291455
798 0.00324896
801 0.00430542
804 0.00570732
807 0.00850949
810 0.015232
813 0.0401983
816 0.189156
819 0.449313
822 0.545063
825 0.102509
828 0.022951
831 0.0104533
834 0.00655992
837 0.00461534
840 0.00351789
843 0.00289005
846 0.00229143
849 0.00200692
852 0.00157063
855 0.00140197
858 0.00138463
861 0.00124398
864 0.00112712
867 0.000893837
870 0.000769983
873 0.000771344
876 0.000894436
879 0.000933718
882 0.00104611
885 0.000945587
888 0.000972608
891 0.000767374
894 0.000917854
897 0.000952874
900 0.000648729
903 0.000681297
906 0.000666612
909 0.000641113
912 0.000737375
915 0.000640225
918 0.000978236
921 0.00120854
924 0.00145167
927 0.00217818
930 0.00299244
933 0.00430269
936 0.00726512
939 0.016792
942 0.0626289
945 0.273618
948 0.283314
951 0.165456
954 0.0326183
957 0.0101979
960 0.00501268
963 0.00335486
966 0.00234681
969 0.00209529
972 0.00150997
975 0.0019401
978 0.00192992
981 0.00156217
984 0.0014779
987 0.00177239
990 0.00170097
993 0.00302161
996 0.00690343
999 0.0176002
1002 0.0543645
1005 0.0984192
1008 0.0593991
1011 0.0141244
1014 0.00390286
1017 0.00245704
1020 0.00145595
1023 0.00104375
1026 0.00119932
1029 0.00126175
1032 0.00172689
1035 0.00202066
1038 0.00288143
1041 0.003612
1044 0.00609129
1047 0.0112193
1050 0.0314219
1053 0.106906
1056 0.116472
1059 0.130325
1062 0.251938
1065 0.105029
1068 0.022961
1071 0.00922233
1074 0.00529352
1077 0.00364477
1080 0.00297909
1083 0.00267937
1086 0.00227092
1089 0.00232091
1092 0.00254755
1095 0.00339473
1098 0.00471347
1101 0.00996744
1104 0.0348796
1107 0.07082
1110 0.0686333
1113 0.12856
1116 0.0728384
1119 0.0142229
1122 0.00508488
1125 0.00243825
1128 0.00163581
1131 0.00138456
1134 0.0011228
1137 0.00120483
1140 0.00109772
1143 0.00139932
1146 0.00160781
1149 0.00249531
1152 0.00475045
1155 0.0135736
1158 0.0692303
1161 0.178613
1164 0.0502843
1167 0.00876358
1170 0.00366073
1173 0.00193946
1176 0.00105383
1179 0.000851431
1182 0.000863848
1185 0.000826227
1188 0.00072617
1191 0.00127434
1194 0.00157383
1197 0.00273986
1200 0.00625626
1203 0.0210915
1206 0.0319276
1209 0.0401479
1212 0.0321367
1215 0.0101544
1218 0.00356341
1221 0.00286741
1224 0.00237051
1227 0.00269252
1230 0.00299336
1233 0.00368644
1236 0.00494952
1239 0.00731334
1242 0.0124877
1245 0.0266859
1248 0.0950253
1251 0.223512
1254 0.297227
1257 0.273499
1260 0.0800344
1263 0.020511
1266 0.00978945
1269 0.0055889
1272 0.00380126
1275 0.00264159
1278 0.00182674
1281 0.00165682
1284 0.00121907
1287 0.00144628
1290 0.000626892
1293 0.000135966
1296 0.00061171
1299 0.000550378
1302 0.00073189
1305 0.000655321
1308 0.000583411
1311 0.000543335
1314 0.000511896
1317 0.000550923
1320 0.00109741
1323 0.00154661
1326 0.00253389
1329 0.00734054
1332 0.0190042
1335 0.0172613
1338 0.0145713
1341 0.0183382
1344 0.0398638
1347 0.0331267
1350 0.00846418
1353 0.00363217
1356 0.00218332
1359 0.00204728
1362 0.00186357
1365 0.00227411
1368 0.00326172
1371 0.00708801
1374 0.0171271
1377 0.022527
1380 0.0388613
1383 0.0571157
1386 0.0483103
1389 0.0194303
1392 0.00600161
1395 0.00328663
1398 0.00298027
1401 0.00366909
1404 0.00435212
1407 0.00639357
1410 0.0121549
1413 0.0349041
1416 0.0616946
1419 0.082656
1422 0.0953801
1425 0.123808
1428 0.104679
1431 0.0256278
1434 0.0097697
1437 0.00587107
1440 0.00441668
1443 0.00357983
1446 0.00372927
1449 0.00415244
1452 0.00605755
1455 0.0132498
1458 0.0435193
1461 0.0626372
1464 0.0435095
1467 0.0263522
1470 0.00740957
1473 0.00458377
1476 0.00340394
1479 0.00370754
1482 0.00484597
1485 0.00718003
1488 0.0132966
1491 0.0398767
1494 0.0676842
1497 0.0571986
1500 0.0837383
1503 0.118925
1506 0.0696172
1509 0.0188558
1512 0.00831855
1515 0.00516749
1518 0.00446084
1521 0.00415341
1524 0.0050216
1527 0.00960448
1530 0.0237727
1533 0.0239088
1536 0.0248555
1539 0.0426322
1542 0.0333753
1545 0.00938682
1548 0.00419991
1551 0.00291317
1554 0.00255778
1557 0.00277063
1560 0.00368429
1563 0.00497001
1566 0.0111294
1569 0.0370478
1572 0.100652
1575 0.0860455
1578 0.0309105
1581 0.00850004
1584 0.00422039
1587 0.00313504
1590 0.00273169
1593 0.00167426
1596 0.00159749
1599 0.0014107
1602 0.0013835
1605 0.00161711
1608 0.00153895
1611 0.00161784
1614 0.0018303
1617 0.00200617
1620 0.00236894
1623 0.00268404
1626 0.00362619
1629 0.00479598
1632 0.00812074
1635 0.0210142
1638 0.053393
1641 0.0558997
1644 0.0813876
1647 0.103787
1650 0.0296868
1653 0.0102264
1656 0.0059762
1659 0.00470427
1662 0.0042393
1665 0.00536989
1668 0.0069252
1671 0.0117842
1674 0.0158519
1677 0.0181076
1680 0.0163236
1683 0.0172955
1686 0.00892267
1689 0.00646121
1692 0.00696023
1695 0.0103546
1698 0.020396
1701 0.0386249
1704 0.060309
1707 0.0950182
1710 0.113246
1713 0.11801
1716 0.124656
1719 0.0531303
1722 0.0177121
1725 0.0104102
1728 0.00839662
1731 0.011093
1734 0.0166145
1737 0.0147144
1740 0.0158906
1743 0.0280022
1746 0.0288281
1749 0.032273
1752 0.0137351
1755 0.00537468
1758 0.00331232
1761 0.00221645
1764 0.00198033
1767 0.00151592
1770 0.00121611
1773 0.00115858
1776 0.00115221
1779 0.000648394
1782 0.00126066
1785 0.0014647
1788 0.00154746
1791 0.00243937
1794 0.00379794
1797 0.00813678
1800 0.0131428
1803 0.022635
1806 0.0300951
1809 0.0372311
1812 0.0302327
1815 0.0131927
1818 0.00655314
1821 0.00603156
1824 0.00875581
1827 0.0223043
1830 0.0407748
1833 0.0338384
1836 0.0298077
1839 0.0412848
1842 0.0762104
1845 0.0598812
1848 0.018359
1851 0.00724531
1854 0.003865
1857 0.00258656
1860 0.00151686
1863 0.0012685
1866 0.00049122
1869 0.000978309
1872 0.000730944
1875 4.54397e-05
1878 0.00044352
1881 0.00107097
1884 0.0011022
1887 0.00181397
1890 0.0042176
1893 0.0121333
1896 0.0276386
1899 0.0218584
1902 0.0153134
1905 0.0166172
1908 0.00782643
1911 0.00304366
1914 0.00257518
1917 0.00348664
1920 0.0072461
1923 0.0110966
1926 0.0155335
1929 0.0143899
1932 0.0172565
1935 0.0133594
1938 0.0051787
1941 0.00372429
1944 0.00515824
1947 0.0105669
1950 0.0222439
1953 0.0324333
1956 0.0519698
1959 0.0718379
1962 0.0479056
1965 0.0256236
1968 0.0105936
1971 0.00612683
1974 0.00649256
1977 0.0129862
1980 0.0210871
1983 0.0184568
1986 0.0221499
1989 0.0303884
1992 0.0273587
1995 0.0143393
1998 0.00678217
2001 0.00718382
2004 0.00897439
2007 0.0120933
2010 0.0263861
2013 0.0525241
2016 0.0442387
2019 0.0397105
2022 0.0256795
2025 0.0107441
2028 0.00602755
2031 0.00589417
2034 0.00456508
2037 0.00372766
2040 0.00351477
2043 0.00365549
2046 0.00618426
2049 0.00979474
2052 0.00862352
2055 0.00938353
2058 0.0166321
2061 0.023467
2064 0.0373974
2067 0.036031
2070 0.0417973
2073 0.064866
2076 0.064929
2079 0.0321401
2082 0.0109492
2085 0.00551137
2088 0.00309277
2091 0.00215128
2094 0.00186909
2097 0.0015334
2100 0.00180497
2103 0.0017602
2106 0.00252741
2109 0.00496453
2112 0.0119658
2115 0.0133929
2118 0.0108734
2121 0.00991143
2124 0.0112314
2127 0.0184472
2130 0.0315676
2133 0.0251745
2136 0.0108486
2139 0.00989339
2142 0.0103933
2145 0.0120676
2148 0.0160812
2151 0.0204107
2154 0.0195932
2157 0.0196876
2160 0.0121455
2163 0.00649342
2166 0.00693066
2169 0.0141114
2172 0.0284057
2175 0.0346856
2178 0.0343669
2181 0.0268259
2184 0.0268388
2187 0.0128662
2190 0.0048645
2193 0.00438083
2196 0.00578645
2199 0.00925566
2202 0.00962127
2205 0.0137835
2208 0.0124139
2211 0.00514243
2214 0.00475179
2217 0.00954917
2220 0.0125228
2223 0.0100133
2226 0.00925774
2229 0.0112584
2232 0.0197776
2235 0.0299497
2238 0.0149786
2241 0.00654537
2244 0.00626183
2247 0.00823007
2250 0.0111783
2253 0.0131652
2256 0.013704
2259 0.013576
2262 0.0104999
2265 0.00757185
2268 0.0129619
2271 0.0170422
2274 0.0132093
2277 0.0126069
2280 0.0173709
2283 0.0282844
2286 0.0280344
2289 0.0152522
2292 0.00520082
2295 0.00219288
2298 0.00125966
2301 0.00101438
2304 0.000476406
2307 0.000333582
2310 0.00069347
2313 0.000456488
2316 0.000984264
2319 0.00108731
2322 0.00207032
2325 0.00484818
2328 0.012536
2331 0.0119885
2334 0.00488394
2337 0.00303702
2340 0.00337215
2343 0.00553663
2346 0.00617709
2349 0.00526775
2352 0.00596278
2355 0.00876888
2358 0.0133163
2361 0.0133257
2364 0.011804
2367 0.0113117
2370 0.0169316
2373 0.0322149
2376 0.0416759
2379 0.044587
2382 0.0383115
2385 0.03022
2388 0.0195566
2391 0.0108857
2394 0.00966177
2397 0.0123793
2400 0.012847
2403 0.0103027
2406 0.0119901
2409 0.0158926
2412 0.0110659
2415 0.0118757
2418 0.0128281
2421 0.0119088
2424 0.0141177
2427 0.0162286
2430 0.0153168
2433 0.0163477
2436 0.0113595
2439 0.00930202
2442 0.00937963
2445 0.00863933
2448 0.00973619
2451 0.0118966
2454 0.0150698
2457 0.0200498
2460 0.0187128
2463 0.0192619
2466 0.0229193
2469 0.0269954
2472 0.0274937
2475 0.0347377
2478 0.0413217
2481 0.0263795
2484 0.0108874
2487 0.00620264
2490 0.00472833
2493 0.00418575
2496 0.00395403
2499 0.00380663
2502 0.00450806
2505 0.00645005
2508 0.0137668
2511 0.0195767
2514 0.0184076
2517 0.0242897
2520 0.0293716
2523 0.0276583
2526 0.0184134
2529 0.0089458
2532 0.0061511
2535 0.00591563
2538 0.00747815
2541 0.00820737
2544 0.00777216
2547 0.00824122
2550 0.00831704
2553 0.00643264
2556 0.00516325
2559 0.00482962
2562 0.00552554
2565 0.00785464
2568 0.0112658
2571 0.0132253
2574 0.0103652
2577 0.00842471
2580 0.00932103
2583 0.0121766
2586 0.01223
2589 0.0138054
2592 0.0125968
2595 0.00699248
2598 0.00326031
2601 0.00217163
2604 0.00156106
2607 0.00169412
2610 0.00131358
2613 0.00171221
2616 0.00245594
2619 0.00438011
2622 0.00682478
2625 0.00755107
2628 0.00764134
2631 0.0102031
2634 0.0107103
2637 0.0124988
2640 0.0150533
2643 0.0170657
2646 0.0191472
2649 0.0217688
2652 0.0205722
2655 0.0255161
2658 0.0247988
2661 0.0121207
2664 0.00469336
2667 0.00246959
2670 0.00122849
2673 0.0022425
2676 0.00222714
2679 0.0018058
2682 0.000902223
2685 0.000728931
2688 0.00108706
2691 0.00133672
2694 0.00180144
2697 0.00298059
2700 0.0046985
2703 0.00597442
2706 0.00567531
2709 0.00636533
2712 0.00742314
2715 0.00874551
2718 0.0101532
2721 0.0129745
2724 0.0157663
2727 0.0127775
2730 0.0123278
2733 0.0171662
2736 0.0224262
2739 0.0221564
2742 0.0199866
2745 0.0182354
2748 0.00934867
2751 0.00476417
2754 0.00408323
2757 0.005471
2760 0.00820028
2763 0.00800781
2766 0.00630293
2769 0.00645298
2772 0.00897452
2775 0.0109526
2778 0.0148326
2781 0.0180956
2784 0.0157689
2787 0.0128677
2790 0.00710332
2793 0.0048412
2796 0.00319293
2799 0.00552529
2802 0.0055612
2805 0.00751895
2808 0.00671196
2811 0.0090255
2814 0.0117159
2817 0.0126117
2820 0.01125
2823 0.0102104
2826 0.00527357
2829 0.00139916
2832 0.000928218
2835 0.000114837
2838 0.00104189
2841 0.00336318
2844 0.00310597
2847 0.00267727
2850 0.00305604
2853 0.00502625
2856 0.00474562
2859 0.00570714
2862 0.00598279
2865 0.0113987
2868 0.0111601
2871 0.00544991
2874 0.00445552
2877 0.0046244
2880 0.00577392
2883 0.00880676
2886 0.0121341
2889 0.0144808
2892 0.0114569
2895 0.0111367
2898 0.0139205
2901 0.0198199
2904 0.0236483
2907 0.0211752
2910 0.0123669
2913 0.00725426
2916 0.00715083
2919 0.00823196
2922 0.00650385
2925 0.00542577
2928 0.00542577
2931 0.00619662
2934 0.00868279
2937 0.00664211
2940 0.00474301
2943 0.0071333
2946 0.00592018
2949 0.00375064
2952 0.00472341
2955 0.00480885
2958 0.00535313
2961 0.00628753
2964 0.00700933
2967 0.00770526
2970 0.00599258
2973 0.00566186
2976 0.0078999
2979 0.00707501
2982 0.0061123
2985 0.00612986
2988 0.00280379
2991 0.000815022
2994 0.000284517
2997 0.0024898
3000 0.00235474
3003 0.00249428
3006 0.00312496
3009 0.00253866
3012 0.00197606
3015 0.00307899
3018 0.0062561
3021 0.00706337
3024 0.00833011
3027 0.00652657
3030 0.00651163
3033 0.00638318
3036 0.00644404
3039 0.00840007
3042 0.00733593
3045 0.00574246
3048 0.00452931
3051 0.00524686
3054 0.00591206
3057 0.00729308
3060 0.0104251
3063 0.0115499
3066 0.00884621
3069 0.00737527
3072 0.00877542
3075 0.00991185
3078 0.0106685
3081 0.00931832
3084 0.0077742
3087 0.00669163
3090 0.00668218
3093 0.0100169
3096 0.0123574
3099 0.0123563
3102 0.00830827
3105 0.00587313
3108 0.00752037
3111 0.00735194
3114 0.00697821
3117 0.0104137
3120 0.0128005
3123 0.0131546
3126 0.0146006
3129 0.013848
3132 0.0112269
3135 0.0135428
3138 0.0125622
3141 0.008127
3144 0.00427741
3147 0.00435666
3150 0.00404063
3153 0.00408572
3156 0.00405018
3159 0.0047943
3162 0.00925427
3165 0.00825094
3168 0.0093253
3171 0.00833049
3174 0.00702166
3177 0.00797155
3180 0.00773297
3183 0.00884778
3186 0.0107131
3189 0.0133668
3192 0.0146118
3195 0.0129027
3198 0.010564
3201 0.0154542
3204 0.0157074
3207 0.0134676
3210 0.0100261
3213 0.007257
3216 0.00588769
3219 0.00244482
3222 0.00490399
3225 0.00441931
3228 0.00494133
3231 0.00403312
3234 0.00217004
3237 0.00237798
3240 0.00405572
3243 0.00423311
3246 0.00352876
3249 0.00322232
3252 0.00328393
3255 0.0052557
3258 0.00549071
3261 0.00615096
3264 0.00737439
3267 0.00857109
3270 0.00739237
3273 0.00608349
3276 0.00399461
3279 0.0085234
3282 0.00891275
3285 0.00378766
3288 0.000634363
3291 0.00186576
3294 0.00367293
3297 0.00367324
3300 0.00369329
3303 0.00338973
3306 0.00456809
3309 0.00340536
3312 0.00569018
3315 0.00532186
3318 0.00255091
3321 0.00374147
3324 0.00401189
3327 0.0051138
3330 0.00771305
3333 0.00489022
3336 0.00634037
3339 0.00627575
3342 0.00634615
3345 0.00810838
3348 0.00811017
3351 0.0105757
3354 0.00920221
3357 0.00677822
3360 0.00482783
3363 0.00563455
3366 0.00706657
3369 0.00491819
3372 0.00208076
3375 0.00319319
3378 0.00502076
3381 0.00628482
3384 0.00598381
3387 0.0070447
3390 0.00709697
3393 0.00540416
3396 0.00407115
3399 0.00538274
3402 0.00521952
3405 0.0046442
3408 0.00675596
3411 0.00373102
3414 0.00386676
3417 0.00258603
3420 0.00442767
3423 0.00636599
3426 0.00371267
3429 0.00648641
3432 0.00340371
3435 0.0110054
3438 0.0102675
3441 0.00765347
3444 0.0068386
3447 0.00981315
3450 0.00876471
3453 0.0153936
3456 0.0163795
3459 0.0143958
3462 0.0107379
3465 0.0148594
3468 0.00907594
3471 0.0031332
3474 0.016655
3477 0.0171695
3480 0.0057045
3483 0.0315965
3486 0.000324189
3487 0.0160555