File: constrainednmf/example_data/BaTiO3_xrd_ramp/BTO_200K_tth.xy
0.000000000000000000e+00 0.000466732
3 0.000618856
6 0.00088095
9 0.00269677
12 0.0105377
15 0.0123132
18 0.0118658
21 0.0113031
24 0.0116514
27 0.0116895
30 0.00962314
33 0.00435904
36 0.00332307
39 0.00337487
42 0.00349544
45 0.00357642
48 0.00351371
51 0.00350635
54 0.00358125
57 0.00362647
60 0.00364557
63 0.00370428
66 0.00366026
69 0.00374197
72 0.00380448
75 0.00386843
78 0.00394861
81 0.00403941
84 0.0040961
87 0.00410867
90 0.00407825
93 0.00401682
96 0.00390453
99 0.00390932
102 0.00388269
105 0.00382587
108 0.00378157
111 0.00378719
114 0.0037618
117 0.00373022
120 0.00369063
123 0.00363155
126 0.00352063
129 0.00359995
132 0.00357274
135 0.00354105
138 0.00345275
141 0.0034286
144 0.00335925
147 0.00334356
150 0.00327402
153 0.00322046
156 0.00323425
159 0.00312173
162 0.00315926
165 0.00310538
168 0.0030067
171 0.00296637
174 0.00289931
177 0.00290624
180 0.0029052
183 0.00273926
186 0.00268864
189 0.00266527
192 0.00265585
195 0.00256772
198 0.00257764
201 0.00249433
204 0.0024567
207 0.00236905
210 0.00232366
213 0.00238237
216 0.00243636
219 0.00229772
222 0.00226616
225 0.00223645
228 0.00224873
231 0.00223967
234 0.00226016
237 0.00220485
240 0.00221781
243 0.00217984
246 0.0022291
249 0.00216979
252 0.00222826
255 0.00223462
258 0.00224514
261 0.00220826
264 0.00227223
267 0.0022691
270 0.00231375
273 0.00222346
276 0.00226711
279 0.00236723
282 0.00253028
285 0.00253562
288 0.00254433
291 0.00261784
294 0.00268161
297 0.00260039
300 0.00235298
303 0.00223597
306 0.00219423
309 0.00213687
312 0.00224513
315 0.00231509
318 0.00232155
321 0.00253618
324 0.00309979
327 0.00555582
330 0.0248833
333 0.110484
336 0.0683528
339 0.0114373
342 0.00888261
345 0.00524118
348 0.00217462
351 0.00171546
354 0.00182945
357 0.00241965
360 0.00453932
363 0.00406405
366 0.00268915
369 0.00157627
372 0.00123299
375 0.00119208
378 0.00115471
381 0.00131317
384 0.00185324
387 0.00496857
390 0.00426897
393 0.00129113
396 0.00122148
399 0.00118072
402 0.00128005
405 0.00108085
408 0.00114171
411 0.0014056
414 0.00154819
417 0.00184034
420 0.00169282
423 0.00166388
426 0.00179366
429 0.00157807
432 0.00150266
435 0.00179135
438 0.00184844
441 0.00205246
444 0.00239415
447 0.00276948
450 0.0032392
453 0.00386841
456 0.00485889
459 0.00637407
462 0.00934445
465 0.0183054
468 0.0673828
471 0.490976
474 0.934172
477 0.159386
480 0.0269692
483 0.0112426
486 0.00698381
489 0.00497426
492 0.00358267
495 0.00288252
498 0.00230033
501 0.00266463
504 0.00193519
507 0.0022426
510 0.00264811
513 0.00274673
516 0.00219683
519 0.00144876
522 0.000831423
525 0.000727838
528 0.000682582
531 0.000634811
534 0.00066394
537 0.000514805
540 0.000554489
543 0.000740276
546 0.000576093
549 0.000610227
552 0.000767479
555 0.000769817
558 0.0011326
561 0.00145676
564 0.00192725
567 0.00252158
570 0.00361588
573 0.00865771
576 0.0479382
579 0.311282
582 0.183341
585 0.0197252
588 0.0056088
591 0.00354785
594 0.00303561
597 0.00201583
600 0.00143493
603 0.00114873
606 0.00107815
609 0.000936048
612 0.00106293
615 0.00117677
618 0.00101277
621 0.00142534
624 0.00223436
627 0.00238057
630 0.00205766
633 0.002093
636 0.00214395
639 0.00214196
642 0.00204321
645 0.00374044
648 0.0074443
651 0.00396061
654 0.00519958
657 0.00794654
660 0.0142124
663 0.0357444
666 0.15352
669 0.349635
672 0.234176
675 0.103402
678 0.0221053
681 0.00861368
684 0.00524259
687 0.00452871
690 0.0037934
693 0.00350953
696 0.00357851
699 0.00702373
702 0.00202043
705 0.00140633
708 0.00139559
711 0.00239855
714 0.00115772
717 0.000934459
720 0.00101807
723 0.00114589
726 0.00101059
729 0.00100948
732 0.00138154
735 0.00193592
738 0.0031486
741 0.0067632
744 0.0256478
747 0.0982471
750 0.11745
753 0.0507483
756 0.00995373
759 0.00306797
762 0.00163944
765 0.00127201
768 0.000833026
771 0.000901164
774 0.000924221
777 0.00235336
780 0.00128461
783 0.00121281
786 0.00123546
789 0.00137618
792 0.00164898
795 0.00205757
798 0.00259812
801 0.00326497
804 0.00460009
807 0.00681697
810 0.0117865
813 0.0270232
816 0.112121
819 0.449451
822 0.523962
825 0.154156
828 0.0294359
831 0.0110417
834 0.00627743
837 0.00421871
840 0.00319242
843 0.00219284
846 0.00200723
849 0.00149335
852 0.00109479
855 0.00102031
858 0.000732948
861 0.00099766
864 0.00113449
867 0.000633721
870 0.000732823
873 0.000749888
876 0.000963944
879 0.00341924
882 0.0013506
885 0.000940259
888 0.00101605
891 0.00106746
894 0.000647782
897 0.000611763
900 0.000655633
903 0.000491492
906 0.000526495
909 0.000630388
912 0.000677858
915 0.000608725
918 0.000793707
921 0.000896466
924 0.00142525
927 0.00200805
930 0.00248506
933 0.00373112
936 0.00609855
939 0.0137958
942 0.0504755
945 0.161615
948 0.341802
951 0.2007
954 0.036654
957 0.0117083
960 0.0058874
963 0.00381206
966 0.00278044
969 0.00236555
972 0.00225979
975 0.00278681
978 0.00324464
981 0.00272088
984 0.00230378
987 0.0020192
990 0.00196504
993 0.00263934
996 0.00448868
999 0.0120766
1002 0.0450354
1005 0.0966661
1008 0.0711479
1011 0.0186677
1014 0.00626786
1017 0.00285361
1020 0.0020127
1023 0.00167027
1026 0.00157363
1029 0.00139152
1032 0.00176048
1035 0.00223388
1038 0.00281864
1041 0.00338572
1044 0.00503561
1047 0.00783733
1050 0.0155367
1053 0.0424264
1056 0.136153
1059 0.232064
1062 0.16825
1065 0.11901
1068 0.0422309
1071 0.0127274
1074 0.00641619
1077 0.00401721
1080 0.00327186
1083 0.00265828
1086 0.00286377
1089 0.00250515
1092 0.00309765
1095 0.00441631
1098 0.0044596
1101 0.00665607
1104 0.0149855
1107 0.050337
1110 0.11566
1113 0.107859
1116 0.071886
1119 0.0273783
1122 0.00727331
1125 0.00326359
1128 0.00215688
1131 0.00143503
1134 0.00118996
1137 0.00117279
1140 0.00102344
1143 0.00164129
1146 0.00172686
1149 0.00263487
1152 0.00400414
1155 0.0111473
1158 0.0508802
1161 0.136326
1164 0.100892
1167 0.015891
1170 0.00460084
1173 0.00252291
1176 0.00154028
1179 0.000909008
1182 0.000974997
1185 0.000844183
1188 0.00106819
1191 0.00123416
1194 0.00166955
1197 0.00282542
1200 0.00469608
1203 0.0129955
1206 0.0289597
1209 0.0462879
1212 0.0348619
1215 0.0135557
1218 0.00473388
1221 0.00252692
1224 0.0023054
1227 0.00231005
1230 0.0026533
1233 0.00319732
1236 0.00392277
1239 0.00597976
1242 0.00973765
1245 0.0191701
1248 0.0567245
1251 0.168101
1254 0.322726
1257 0.298065
1260 0.121339
1263 0.0297189
1266 0.0117772
1269 0.00646666
1272 0.00418374
1275 0.00262085
1278 0.00219867
1281 0.00160708
1284 0.000952053
1287 0.00114508
1290 0.00102649
1293 0.00109597
1296 0.000489817
1299 0.000566589
1302 0.000646681
1305 0.000522444
1308 0.000785717
1311 0.000604081
1314 0.000779501
1317 0.000413611
1320 0.000828298
1323 0.0011089
1326 0.0017245
1329 0.00290989
1332 0.00573318
1335 0.0154924
1338 0.0345657
1341 0.0351878
1344 0.0249282
1347 0.0196754
1350 0.0172399
1353 0.0065242
1356 0.00315893
1359 0.00224388
1362 0.00150133
1365 0.00203844
1368 0.00210267
1371 0.00366793
1374 0.00706317
1377 0.0194987
1380 0.047631
1383 0.0613598
1386 0.045174
1389 0.0207998
1392 0.0110649
1395 0.00445632
1398 0.00293568
1401 0.00303994
1404 0.00365161
1407 0.00453138
1410 0.00728326
1413 0.0144552
1416 0.0379528
1419 0.0882345
1422 0.133583
1425 0.129721
1428 0.0797268
1431 0.0472062
1434 0.0163837
1437 0.00691441
1440 0.00478611
1443 0.00322053
1446 0.00294582
1449 0.00330743
1452 0.00521148
1455 0.0122957
1458 0.0263183
1461 0.0494279
1464 0.0689784
1467 0.0317539
1470 0.00860797
1473 0.0045165
1476 0.00338851
1479 0.00353465
1482 0.00390381
1485 0.00499856
1488 0.00815036
1491 0.0168418
1494 0.0416931
1497 0.0849095
1500 0.119429
1503 0.0917022
1506 0.0709345
1509 0.0347147
1512 0.0116267
1515 0.00605241
1518 0.00429506
1521 0.00340836
1524 0.00397488
1527 0.00545623
1530 0.0115577
1533 0.0262135
1536 0.0417802
1539 0.0389849
1542 0.0284654
1545 0.0172346
1548 0.00583916
1551 0.00307944
1554 0.00201898
1557 0.00198834
1560 0.00271383
1563 0.00423481
1566 0.00936156
1569 0.0299088
1572 0.0631966
1575 0.104041
1578 0.0581744
1581 0.0133697
1584 0.00494336
1587 0.00313756
1590 0.00209964
1593 0.00169556
1596 0.00126559
1599 0.00145934
1602 0.00109471
1605 0.00102584
1608 0.00109908
1611 0.00093754
1614 0.00126594
1617 0.00139315
1620 0.00173871
1623 0.00163532
1626 0.0022487
1629 0.00298972
1632 0.00511206
1635 0.010812
1638 0.0295637
1641 0.0655852
1644 0.094923
1647 0.0855716
1650 0.052412
1653 0.0180669
1656 0.00729462
1659 0.00435129
1662 0.00369009
1665 0.00350705
1668 0.00482097
1671 0.00870343
1674 0.0132667
1677 0.0195924
1680 0.0213158
1683 0.0157738
1686 0.00836753
1689 0.00581015
1692 0.00523179
1695 0.00663599
1698 0.00994118
1701 0.0190134
1704 0.0461016
1707 0.0882387
1710 0.135096
1713 0.152967
1716 0.114039
1719 0.0576251
1722 0.0316429
1725 0.0143164
1728 0.00816706
1731 0.00667903
1734 0.00759453
1737 0.0135404
1740 0.0269882
1743 0.034768
1746 0.0333088
1749 0.0203339
1752 0.0141826
1755 0.0102127
1758 0.00409151
1761 0.00209518
1764 0.00158584
1767 0.000950313
1770 0.000615734
1773 0.000575512
1776 0.000584745
1779 0.000505209
1782 0.000515624
1785 0.000520186
1788 0.00097149
1791 0.00127832
1794 0.00214061
1797 0.00418443
1800 0.00893944
1803 0.0209325
1806 0.0335073
1809 0.0413996
1812 0.0322054
1815 0.0163112
1818 0.00913656
1821 0.00564536
1824 0.00547608
1827 0.00882736
1830 0.0178759
1833 0.0388708
1836 0.0644153
1839 0.0705961
1842 0.0543264
1845 0.0426403
1848 0.0367983
1851 0.0156547
1854 0.00617172
1857 0.00327811
1860 0.00183668
1863 0.0013078
1866 0.00087293
1869 0.000829351
1872 0.00077714
1875 0.000747216
1878 0.00060037
1881 0.0010858
1884 0.00105638
1887 0.00234766
1890 0.0046008
1893 0.00815319
1896 0.0133621
1899 0.023638
1902 0.0312511
1905 0.0221668
1908 0.0080299
1911 0.00356409
1914 0.00271742
1917 0.00306322
1920 0.00529682
1923 0.0100994
1926 0.0150766
1929 0.0200364
1932 0.0205501
1935 0.0142677
1938 0.00785228
1941 0.00455975
1944 0.00466573
1947 0.00716014
1950 0.0146197
1953 0.0289769
1956 0.0523641
1959 0.0715732
1962 0.0673689
1965 0.0356407
1968 0.0171877
1971 0.00843935
1974 0.00654773
1977 0.00883033
1980 0.0147331
1983 0.0221237
1986 0.0331542
1989 0.0335418
1992 0.0262818
1995 0.0199092
1998 0.00973543
2001 0.00561061
2004 0.00691483
2007 0.0124229
2010 0.0245369
2013 0.0362906
2016 0.0561747
2019 0.0591876
2022 0.0292938
2025 0.0123413
2028 0.00875635
2031 0.00590795
2034 0.00521707
2037 0.00702618
2040 0.00860851
2043 0.00823627
2046 0.00677279
2049 0.00616849
2052 0.00639722
2055 0.00797909
2058 0.0092126
2061 0.0144997
2064 0.0306583
2067 0.052508
2070 0.0677931
2073 0.0700124
2076 0.0555568
2079 0.0382211
2082 0.0216455
2085 0.0123001
2088 0.00610059
2091 0.00392049
2094 0.00279961
2097 0.00251087
2100 0.00229535
2103 0.00218509
2106 0.00234258
2109 0.00287926
2112 0.00400995
2115 0.00757569
2118 0.0143605
2121 0.0236911
2124 0.0271966
2127 0.023387
2130 0.017998
2133 0.0162277
2136 0.0172007
2139 0.013153
2142 0.0103632
2145 0.0146648
2148 0.0207632
2151 0.0255786
2154 0.026653
2157 0.0204011
2160 0.0124436
2163 0.00997532
2166 0.00943159
2169 0.013156
2172 0.0177859
2175 0.0276397
2178 0.0419654
2181 0.0474199
2184 0.0367674
2187 0.0173739
2190 0.00768742
2193 0.00484062
2196 0.0050363
2199 0.00881528
2202 0.0111995
2205 0.0143285
2208 0.0135528
2211 0.00903238
2214 0.00493058
2217 0.00426277
2220 0.00682587
2223 0.0133007
2226 0.0201462
2229 0.023952
2232 0.0211857
2235 0.0165854
2238 0.01539
2241 0.0137222
2244 0.00870845
2247 0.00871294
2250 0.0112329
2253 0.0145583
2256 0.0181082
2259 0.0165015
2262 0.0116144
2265 0.00797875
2268 0.00727259
2271 0.0107984
2274 0.0168786
2277 0.0259263
2280 0.0311609
2283 0.0266164
2286 0.0206961
2289 0.019141
2292 0.0130693
2295 0.00510257
2298 0.00265914
2301 0.00129965
2304 0.000987127
2307 0.000682801
2310 0.000453662
2313 0.000438358
2316 0.000523239
2319 0.001073
2322 0.00164656
2325 0.00426287
2328 0.00737253
2331 0.0106243
2334 0.0122507
2337 0.0047269
2340 0.00279788
2343 0.00317173
2346 0.00563101
2349 0.00842434
2352 0.0101717
2355 0.0109016
2358 0.0093908
2361 0.00877664
2364 0.0095744
2367 0.0112654
2370 0.0187316
2373 0.031098
2376 0.0403272
2379 0.0522058
2382 0.0570075
2385 0.034056
2388 0.0173181
2391 0.0141613
2394 0.0145041
2397 0.0138711
2400 0.01498
2403 0.0159722
2406 0.0156949
2409 0.0113415
2412 0.00868335
2415 0.00899823
2418 0.010269
2421 0.0118218
2424 0.0175259
2427 0.0199647
2430 0.0180163
2433 0.0153831
2436 0.0122018
2439 0.00892756
2442 0.00913081
2445 0.0109633
2448 0.0128313
2451 0.0124643
2454 0.011089
2457 0.0114699
2460 0.01236
2463 0.0185932
2466 0.028634
2469 0.0369859
2472 0.0434675
2475 0.044129
2478 0.0357592
2481 0.0239501
2484 0.0171865
2487 0.0124309
2490 0.006721
2493 0.00423396
2496 0.00317767
2499 0.00280687
2502 0.00310531
2505 0.00403694
2508 0.0073986
2511 0.0128583
2514 0.0189519
2517 0.0289301
2520 0.0337935
2523 0.0299414
2526 0.0233248
2529 0.0133714
2532 0.00731371
2535 0.00721162
2538 0.00801417
2541 0.00783629
2544 0.00805725
2547 0.00594812
2550 0.004562
2553 0.00578603
2556 0.00680326
2559 0.00892309
2562 0.00941625
2565 0.00843337
2568 0.00749504
2571 0.00742363
2574 0.00854842
2577 0.0110682
2580 0.0128882
2583 0.0152647
2586 0.0165313
2589 0.0153106
2592 0.0108897
2595 0.00705406
2598 0.00576237
2601 0.00262858
2604 0.00144894
2607 0.00059661
2610 0.00099698
2613 0.00105115
2616 0.00132877
2619 0.00297439
2622 0.00511581
2625 0.00661288
2628 0.00886963
2631 0.0107001
2634 0.0107806
2637 0.0101166
2640 0.0119105
2643 0.0153323
2646 0.0219165
2649 0.0294546
2652 0.0332421
2655 0.0313743
2658 0.0249742
2661 0.0163581
2664 0.0100172
2667 0.00481035
2670 0.00174773
2673 0.000920841
2676 0.00078048
2679 0.000978209
2682 0.000996093
2685 0.00128633
2688 0.00185071
2691 0.0018085
2694 0.0021661
2697 0.0019868
2700 0.00283621
2703 0.0037748
2706 0.00584024
2709 0.00753105
2712 0.00974812
2715 0.0101526
2718 0.011159
2721 0.0103946
2724 0.0109132
2727 0.0135903
2730 0.0193886
2733 0.025103
2736 0.0286304
2739 0.0294394
2742 0.0225617
2745 0.0148439
2748 0.0128238
2751 0.00983734
2754 0.00836042
2757 0.00687211
2760 0.00588731
2763 0.00501296
2766 0.00630425
2769 0.00982793
2772 0.0134686
2775 0.0155433
2778 0.0174987
2781 0.0200796
2784 0.0154354
2787 0.0112813
2790 0.0104973
2793 0.0113337
2796 0.0111924
2799 0.0087319
2802 0.00745509
2805 0.00577375
2808 0.00747341
2811 0.00850448
2814 0.00931081
2817 0.0124285
2820 0.016471
2823 0.0165726
2826 0.0111747
2829 0.00506677
2832 0.000433114
2835 0.0011548
2838 0.00104896
2841 0.000717851
2844 0.00094029
2847 0.00321889
2850 0.00459356
2853 0.00694573
2856 0.00900525
2859 0.00969831
2862 0.0104555
2865 0.0104731
2868 0.00782937
2871 0.00757181
2874 0.00752768
2877 0.00647396
2880 0.00605285
2883 0.00731269
2886 0.00879673
2889 0.0120266
2892 0.016555
2895 0.0221458
2898 0.0262266
2901 0.0267128
2904 0.0226
2907 0.0208587
2910 0.0167936
2913 0.0140037
2916 0.0123077
2919 0.0105414
2922 0.00921599
2925 0.00811918
2928 0.00754955
2931 0.00593622
2934 0.00484805
2937 0.00741774
2940 0.00945314
2943 0.0105662
2946 0.00906847
2949 0.00700333
2952 0.00690224
2955 0.00703755
2958 0.00737079
2961 0.00860666
2964 0.00729968
2967 0.00605445
2970 0.00589392
2973 0.00790577
2976 0.00976418
2979 0.0109818
2982 0.00979445
2985 0.00852232
2988 0.00478526
2991 0.00232107
2994 0.00032151
2997 0.00061819
3000 0.00176379
3003 0.000760019
3006 0.0019687
3009 0.0034946
3012 0.00423444
3015 0.00597183
3018 0.00601708
3021 0.0060877
3024 0.00617366
3027 0.00783701
3030 0.00882131
3033 0.00812319
3036 0.0081964
3039 0.00812868
3042 0.00764541
3045 0.00802696
3048 0.00875942
3051 0.00917228
3054 0.00740614
3057 0.00751667
3060 0.00747014
3063 0.00900012
3066 0.0085913
3069 0.00955503
3072 0.0106879
3075 0.00976311
3078 0.0103177
3081 0.00965818
3084 0.00797436
3087 0.0104848
3090 0.0124601
3093 0.0109291
3096 0.00952884
3099 0.00789916
3102 0.0098725
3105 0.00883928
3108 0.00616336
3111 0.00687931
3114 0.00733592
3117 0.00933024
3120 0.011241
3123 0.0137073
3126 0.0163042
3129 0.0185939
3132 0.0212092
3135 0.0159701
3138 0.0107287
3141 0.0074068
3144 0.00535781
3147 0.00439865
3150 0.00332323
3153 0.00225548
3156 0.00247147
3159 0.00353896
3162 0.00503857
3165 0.00780783
3168 0.00870451
3171 0.0110889
3174 0.0078978
3177 0.00768017
3180 0.0078372
3183 0.00942225
3186 0.00863931
3189 0.01149
3192 0.0111585
3195 0.0140391
3198 0.0158826
3201 0.0182658
3204 0.0186106
3207 0.0179546
3210 0.0131109
3213 0.0122104
3216 0.00800388
3219 0.00629625
3222 0.00361288
3225 0.00401263
3228 0.00123749
3231 0.0025768
3234 0.00202077
3237 0.00284524
3240 0.00213178
3243 0.00218717
3246 0.00191224
3249 0.000000000000000000e+00
3252 0.00131193
3255 0.00338106
3258 0.00227561
3261 0.00642233
3264 0.0062821
3267 0.0100712
3270 0.00912316
3273 0.0105493
3276 0.0108733
3279 0.0108436
3282 0.00730644
3285 0.00428628
3288 0.00372705
3291 0.00244209
3294 0.0016922
3297 0.00129191
3300 0.00149068
3303 0.00272224
3306 0.00357495
3309 0.004916
3312 0.00333052
3315 0.00445926
3318 0.00424081
3321 0.00304592
3324 0.00538496
3327 0.00371137
3330 0.00573335
3333 0.00623424
3336 0.0082289
3339 0.00943461
3342 0.0120153
3345 0.0123552
3348 0.0119272
3351 0.0104525
3354 0.0115898
3357 0.00925901
3360 0.0081803
3363 0.00745725
3366 0.00679367
3369 0.00678572
3372 0.00517831
3375 0.00676473
3378 0.00621149
3381 0.00791388
3384 0.00740234
3387 0.00790845
3390 0.00909557
3393 0.00803388
3396 0.00621619
3399 0.00700649
3402 0.0089082
3405 0.00678098
3408 0.0056862
3411 0.0059541
3414 0.00614903
3417 0.00631178
3420 0.00418574
3423 0.00189373
3426 0.00298899
3429 0.0032708
3432 0.00435967
3435 0.00317023
3438 0.00705971
3441 0.0127506
3444 0.00989276
3447 0.0108044
3450 0.0117494
3453 0.0103934
3456 0.00920101
3459 0.0110614
3462 0.00898603
3465 0.00886414
3468 0.011417
3471 0.0104932
3474 0.0145666
3477 0.0157249
3480 0.0145943
3483 0.00542314
3486 0.0100936
3487 0.0260507