File: constrainednmf/example_data/BaTiO3_xrd_ramp/BTO_270K_tth.xy
0.000000000000000000e+00 0.00027742
3 0.000382007
6 0.000619887
9 0.00234299
12 0.0103957
15 0.0119375
18 0.0113607
21 0.0108072
24 0.0111385
27 0.0111169
30 0.00913707
33 0.00385874
36 0.00276531
39 0.00279918
42 0.00292183
45 0.00296738
48 0.00297708
51 0.00298888
54 0.00300741
57 0.00305657
60 0.00309564
63 0.00315725
66 0.00315805
69 0.00325131
72 0.00326238
75 0.00331034
78 0.00340644
81 0.00356402
84 0.00363819
87 0.00363417
90 0.00360517
93 0.00356771
96 0.00348157
99 0.0034573
102 0.00346253
105 0.00340984
108 0.00341721
111 0.00339356
114 0.00339333
117 0.00333583
120 0.00330639
123 0.00330453
126 0.00313183
129 0.00323285
132 0.00321167
135 0.00314277
138 0.00311691
141 0.00316306
144 0.00309258
147 0.00304625
150 0.00302864
153 0.00293644
156 0.00292095
159 0.00299316
162 0.0029025
165 0.00294137
168 0.00284385
171 0.00280164
174 0.00271577
177 0.00280005
180 0.00267229
183 0.00263238
186 0.00259614
189 0.00253363
192 0.0025819
195 0.00248817
198 0.00243236
201 0.00241792
204 0.00236638
207 0.00232108
210 0.00238414
213 0.00230705
216 0.00231391
219 0.00228124
222 0.00221759
225 0.00222769
228 0.00223246
231 0.00227985
234 0.00222975
237 0.00213811
240 0.00221643
243 0.00226102
246 0.00223178
249 0.00223289
252 0.00230551
255 0.00219822
258 0.00225057
261 0.00225565
264 0.00226372
267 0.00230351
270 0.00225083
273 0.00231753
276 0.00240591
279 0.00245233
282 0.00255176
285 0.00260408
288 0.00270496
291 0.00262478
294 0.00267269
297 0.00253844
300 0.00237767
303 0.00224637
306 0.00225541
309 0.00211707
312 0.00217636
315 0.00216357
318 0.00218265
321 0.00239245
324 0.00303178
327 0.00583996
330 0.0284806
333 0.107438
336 0.0648224
339 0.00959516
342 0.00332847
345 0.00199292
348 0.00170476
351 0.00146804
354 0.00158064
357 0.00235925
360 0.00441006
363 0.00358458
366 0.00211704
369 0.00114188
372 0.000944507
375 0.000763042
378 0.000750912
381 0.000913373
384 0.000913792
387 0.00106986
390 0.000897773
393 0.000919749
396 0.000875806
399 0.000950235
402 0.000822958
405 0.000990908
408 0.001079
411 0.00117977
414 0.00139992
417 0.00147433
420 0.00126974
423 0.00139112
426 0.00158355
429 0.00125502
432 0.00133695
435 0.00147055
438 0.00157375
441 0.00183596
444 0.00222148
447 0.00256738
450 0.00305857
453 0.00368877
456 0.00486641
459 0.00637922
462 0.00958858
465 0.0195754
468 0.0789296
471 0.586008
474 0.831302
477 0.126677
480 0.0232364
483 0.00995353
486 0.00631093
489 0.00442496
492 0.00333418
495 0.00249807
498 0.00201941
501 0.00166462
504 0.00173771
507 0.00211632
510 0.00261673
513 0.00230228
516 0.00182451
519 0.000939084
522 0.000600091
525 0.000470212
528 0.000226024
531 0.000418496
534 0.000339144
537 0.000291462
540 0.00032774
543 0.00032723
546 0.000425278
549 0.00042394
552 0.000489676
555 0.000665117
558 0.000910987
561 0.0011694
564 0.00160488
567 0.00218244
570 0.0037174
573 0.00931678
576 0.0572822
579 0.351533
582 0.132589
585 0.014889
588 0.00504777
591 0.00284586
594 0.00203494
597 0.00141134
600 0.00105303
603 0.000876211
606 0.000612889
609 0.000611824
612 0.00066579
615 0.000756691
618 0.000748663
621 0.00109081
624 0.00194144
627 0.001918
630 0.00152441
633 0.001505
636 0.00164738
639 0.00147616
642 0.00161914
645 0.00180321
648 0.00216651
651 0.00331625
654 0.00494681
657 0.00790752
660 0.016179
663 0.0493677
666 0.194868
669 0.287632
672 0.249904
675 0.0802671
678 0.0169203
681 0.00708848
684 0.00443215
687 0.00338652
690 0.00334648
693 0.00313533
696 0.00209572
699 0.00140948
702 0.000936562
705 0.000840143
708 0.000827302
711 0.000697155
714 0.000833356
717 0.000739362
720 0.000768213
723 0.000991073
726 0.000859054
729 0.000905778
732 0.00134003
735 0.0018072
738 0.00345133
741 0.00821822
744 0.0348972
747 0.104134
750 0.106548
753 0.0420571
756 0.00765289
759 0.00291559
762 0.00184429
765 0.00112895
768 0.000953119
771 0.00106516
774 0.000827007
777 0.00109138
780 0.00113499
783 0.0010932
786 0.00130876
789 0.0015028
792 0.00183791
795 0.0022792
798 0.00286357
801 0.00370186
804 0.00508929
807 0.00751454
810 0.013033
813 0.0332115
816 0.149476
819 0.487011
822 0.475781
825 0.11108
828 0.0230862
831 0.00981488
834 0.00588878
837 0.00436863
840 0.00302734
843 0.00233063
846 0.00199242
849 0.00147255
852 0.00125342
855 0.000922915
858 0.00102045
861 0.0011219
864 0.000775212
867 0.000661912
870 0.000702843
873 0.000484629
876 0.00035111
879 0.000521192
882 0.00067957
885 0.000710214
888 0.000653978
891 0.000339743
894 0.000554732
897 0.000693217
900 0.000340834
903 0.000270401
906 0.00053532
909 0.000289468
912 0.000579664
915 0.00054895
918 0.000734742
921 0.000930634
924 0.00131241
927 0.00165989
930 0.00233285
933 0.00370869
936 0.00676271
939 0.015892
942 0.0640238
945 0.196968
948 0.335669
951 0.148771
954 0.0289381
957 0.00960026
960 0.00488795
963 0.00295407
966 0.00210928
969 0.00153044
972 0.00149005
975 0.00171371
978 0.00173704
981 0.00145341
984 0.00149406
987 0.00126231
990 0.00173556
993 0.00254571
996 0.00508864
999 0.0149289
1002 0.0523308
1005 0.0990103
1008 0.053447
1011 0.0154835
1014 0.00415217
1017 0.00221119
1020 0.00152837
1023 0.00117777
1026 0.0010928
1029 0.00104921
1032 0.00144892
1035 0.00174272
1038 0.00193848
1041 0.00327036
1044 0.00502718
1047 0.00911864
1050 0.0206509
1053 0.0625504
1056 0.16032
1059 0.179787
1062 0.156998
1065 0.119895
1068 0.027471
1071 0.0095511
1074 0.00522321
1077 0.00353214
1080 0.00258951
1083 0.00238555
1086 0.00200177
1089 0.00215126
1092 0.00202186
1095 0.00281301
1098 0.00399343
1101 0.0077314
1104 0.0207901
1107 0.0665101
1110 0.104239
1113 0.091385
1116 0.0740294
1119 0.0174198
1122 0.00521534
1125 0.00254146
1128 0.00150326
1131 0.00113447
1134 0.000974416
1137 0.000987918
1140 0.000945264
1143 0.00108693
1146 0.00145554
1149 0.00218868
1152 0.00409074
1155 0.0121769
1158 0.0648595
1161 0.154623
1164 0.0633455
1167 0.0106256
1170 0.00340426
1173 0.00200637
1176 0.00132918
1179 0.000862816
1182 0.000869644
1185 0.000605348
1188 0.000756358
1191 0.00105448
1194 0.00145256
1197 0.00252636
1200 0.00573254
1203 0.0172178
1206 0.0320147
1209 0.0401179
1212 0.0322804
1215 0.00970898
1218 0.00380338
1221 0.00233528
1224 0.00222988
1227 0.00223688
1230 0.00282911
1233 0.00315084
1236 0.00450948
1239 0.00647138
1242 0.0110428
1245 0.0231069
1248 0.0758588
1251 0.203148
1254 0.308935
1257 0.26423
1260 0.0847564
1263 0.0213792
1266 0.00955238
1269 0.00553907
1272 0.00344517
1275 0.00260272
1278 0.00184942
1281 0.00132375
1284 0.00116536
1287 0.000809486
1290 0.000654542
1293 0.000671569
1296 0.00035201
1299 0.000374775
1302 0.000400329
1305 0.000304004
1308 0.00055085
1311 0.000343565
1314 0.000464048
1317 0.000161551
1320 0.00103917
1323 0.00120947
1326 0.00186516
1329 0.00392708
1332 0.00901723
1335 0.0210532
1338 0.0313897
1341 0.0238858
1344 0.0198192
1347 0.0290344
1350 0.0128385
1353 0.00392912
1356 0.00203785
1359 0.00148478
1362 0.00128
1365 0.0014327
1368 0.00250145
1371 0.00422239
1374 0.00956158
1377 0.0245608
1380 0.0482514
1383 0.054541
1386 0.0362905
1389 0.02174
1392 0.00734397
1395 0.00314648
1398 0.00238481
1401 0.00262835
1404 0.00324514
1407 0.00511016
1410 0.00859436
1413 0.0200184
1416 0.0525119
1419 0.0968339
1422 0.115605
1425 0.105364
1428 0.0870112
1431 0.034627
1434 0.0106495
1437 0.00586101
1440 0.00374609
1443 0.00293493
1446 0.00290673
1449 0.00339293
1452 0.00518214
1455 0.0142753
1458 0.0309872
1461 0.0561292
1464 0.058479
1467 0.0212571
1470 0.00651557
1473 0.00333298
1476 0.00297986
1479 0.00271215
1482 0.00381932
1485 0.0056081
1488 0.00982667
1491 0.0236102
1494 0.0556702
1497 0.089882
1500 0.0902385
1503 0.0851571
1506 0.0732706
1509 0.0222692
1512 0.00826932
1515 0.00479823
1518 0.00350112
1521 0.00316939
1524 0.0036675
1527 0.00634978
1530 0.0148214
1533 0.0295388
1536 0.0351644
1539 0.0305364
1542 0.0305652
1545 0.0115387
1548 0.00393783
1551 0.00224677
1554 0.00172991
1557 0.00166713
1560 0.00215608
1563 0.00420646
1566 0.0105489
1569 0.0348052
1572 0.0807689
1575 0.0944273
1578 0.0347439
1581 0.00866511
1584 0.00372049
1587 0.00233983
1590 0.00171042
1593 0.00138718
1596 0.00105766
1599 0.00112488
1602 0.000631687
1605 0.00070093
1608 0.000686494
1611 0.00062521
1614 0.00100571
1617 0.00110148
1620 0.00138732
1623 0.00168131
1626 0.00240752
1629 0.00327224
1632 0.00620229
1635 0.0144584
1638 0.039696
1641 0.0724032
1644 0.0827385
1647 0.0801762
1650 0.0398116
1653 0.0110964
1656 0.00517606
1659 0.00390373
1662 0.00354432
1665 0.0035764
1668 0.00597937
1671 0.0104057
1674 0.0145003
1677 0.0179231
1680 0.0182366
1683 0.0137987
1686 0.00786257
1689 0.00542201
1692 0.00550692
1695 0.00773308
1698 0.0131478
1701 0.0257967
1704 0.0604117
1707 0.0964417
1710 0.126456
1713 0.127189
1716 0.0965643
1719 0.0565679
1722 0.0227019
1725 0.0102744
1728 0.00714019
1731 0.00700529
1734 0.00995942
1737 0.0165412
1740 0.0263205
1743 0.0305879
1746 0.0247374
1749 0.0183521
1752 0.017679
1755 0.00646812
1758 0.00244778
1761 0.00171725
1764 0.00116738
1767 0.000805402
1770 0.000851798
1773 0.00036725
1776 0.000529546
1779 0.000574245
1782 0.000741355
1785 0.000709803
1788 0.000855228
1791 0.001526
1794 0.00257599
1797 0.00476241
1800 0.0112655
1803 0.0234311
1806 0.0330036
1809 0.0358524
1812 0.025695
1815 0.0150335
1818 0.0071939
1821 0.00544164
1824 0.00650864
1827 0.0120155
1830 0.0252072
1833 0.0465
1836 0.0582852
1839 0.0490653
1842 0.0435507
1845 0.0543901
1848 0.028064
1851 0.00887562
1854 0.00398702
1857 0.00241314
1860 0.00145379
1863 0.000991336
1866 0.00111125
1869 0.00047834
1872 0.0002587
1875 0.000502017
1878 0.000433079
1881 0.000827934
1884 0.00102533
1887 0.00204001
1890 0.00576592
1893 0.0105568
1896 0.0153971
1899 0.0249314
1902 0.0273115
1905 0.0151594
1908 0.00593611
1911 0.00258935
1914 0.00222109
1917 0.00303389
1920 0.00584331
1923 0.010956
1926 0.0144993
1929 0.0176846
1932 0.0169071
1935 0.0124456
1938 0.00599434
1941 0.0038304
1944 0.00472332
1947 0.0082055
1950 0.0175188
1953 0.0332858
1956 0.0562516
1959 0.067016
1962 0.0514921
1965 0.0285732
1968 0.0115537
1971 0.00629624
1974 0.00647135
1977 0.0101619
1980 0.0171912
1983 0.0238046
1986 0.0280802
1989 0.0258705
1992 0.0266979
1995 0.0160366
1998 0.00679814
2001 0.00533848
2004 0.00761186
2007 0.0148147
2010 0.026993
2013 0.040587
2016 0.0563128
2019 0.0428653
2022 0.0200092
2025 0.0123092
2028 0.00730073
2031 0.00483242
2034 0.00552381
2037 0.00669209
2040 0.00652122
2043 0.00546227
2046 0.00486544
2049 0.00542344
2052 0.00854195
2055 0.00823008
2058 0.0101904
2061 0.019043
2064 0.0370635
2067 0.0527993
2070 0.0574556
2073 0.0538823
2076 0.0501614
2079 0.0346353
2082 0.0176532
2085 0.00724033
2088 0.00371921
2091 0.00231749
2094 0.00214697
2097 0.00158929
2100 0.00170439
2103 0.0019292
2106 0.00208464
2109 0.00291855
2112 0.00561368
2115 0.010502
2118 0.0170757
2121 0.0215833
2124 0.0192069
2127 0.0151121
2130 0.0156592
2133 0.0227635
2136 0.0166536
2139 0.00890924
2142 0.0105482
2145 0.0147032
2148 0.019198
2151 0.0226338
2154 0.0203339
2157 0.0154592
2160 0.0129346
2163 0.00843703
2166 0.00825408
2169 0.0148533
2172 0.0197855
2175 0.029393
2178 0.0393055
2181 0.0394561
2184 0.0270258
2187 0.0115574
2190 0.00534561
2193 0.00429363
2196 0.00523251
2199 0.00889764
2202 0.0110192
2205 0.0128561
2208 0.0114308
2211 0.0059405
2214 0.00388094
2217 0.00516553
2220 0.00916353
2223 0.0145585
2226 0.0182435
2229 0.0170982
2232 0.0144274
2235 0.0163262
2238 0.0190683
2241 0.00945098
2244 0.00625171
2247 0.00863653
2250 0.010637
2253 0.013286
2256 0.0150806
2259 0.0134388
2262 0.0101573
2265 0.00681739
2268 0.0082903
2271 0.013132
2274 0.018948
2277 0.0236213
2280 0.0219698
2283 0.0186618
2286 0.0225377
2289 0.0196382
2292 0.00741711
2295 0.00320844
2298 0.00170361
2301 0.00087193
2304 0.000330301
2307 0.000128685
2310 0.0003456
2313 0.000702673
2316 0.000541026
2319 0.000841379
2322 0.00187857
2325 0.00513223
2328 0.00905304
2331 0.0110883
2334 0.0068538
2337 0.0026066
2340 0.00260329
2343 0.00371234
2346 0.00582525
2349 0.00801199
2352 0.00841952
2355 0.00772418
2358 0.00839206
2361 0.00982293
2364 0.0094986
2367 0.0125081
2370 0.0204508
2373 0.0313114
2376 0.0407741
2379 0.0497001
2382 0.0408674
2385 0.0231385
2388 0.0170143
2391 0.0148252
2394 0.0126817
2397 0.0116561
2400 0.0126192
2403 0.0128326
2406 0.0119055
2409 0.0097035
2412 0.010273
2415 0.0104413
2418 0.0101624
2421 0.0121212
2424 0.0158725
2427 0.0157132
2430 0.0155116
2433 0.0148345
2436 0.00931893
2439 0.00823619
2442 0.00867859
2445 0.00973511
2448 0.010371
2451 0.00981994
2454 0.0110264
2457 0.0121253
2460 0.0149368
2463 0.0215346
2466 0.0290778
2469 0.0332199
2472 0.0355369
2475 0.0324753
2478 0.0278449
2481 0.0239454
2484 0.016454
2487 0.00742626
2490 0.00437304
2493 0.002861
2496 0.00291396
2499 0.00271892
2502 0.00316774
2505 0.0046936
2508 0.00915521
2511 0.0151356
2514 0.0210894
2517 0.0269737
2520 0.0276568
2523 0.0273251
2526 0.0183643
2529 0.00892532
2532 0.00595497
2535 0.00661198
2538 0.00713226
2541 0.00732445
2544 0.00616968
2547 0.00520972
2550 0.00529456
2553 0.00592
2556 0.00708757
2559 0.00789294
2562 0.00674464
2565 0.0057528
2568 0.00642852
2571 0.00896753
2574 0.0105807
2577 0.0108713
2580 0.0116044
2583 0.0133011
2586 0.0130114
2589 0.0105679
2592 0.00881638
2595 0.00853844
2598 0.00345458
2601 0.00172083
2604 0.00083095
2607 0.000971234
2610 0.000533519
2613 0.00132545
2616 0.00174557
2619 0.00297427
2622 0.00529773
2625 0.00658705
2628 0.00869544
2631 0.00952685
2634 0.00970761
2637 0.0101272
2640 0.013336
2643 0.0170198
2646 0.0209803
2649 0.0257215
2652 0.0248087
2655 0.0245695
2658 0.0212226
2661 0.0141665
2664 0.00553713
2667 0.0027533
2670 0.00137089
2673 0.000688516
2676 0.000829045
2679 0.000809223
2682 0.00115396
2685 0.00109223
2688 0.00139468
2691 0.00129042
2694 0.0010265
2697 0.00141398
2700 0.00198449
2703 0.00425877
2706 0.00654051
2709 0.00672694
2712 0.00761492
2715 0.00875751
2718 0.00923516
2721 0.00997734
2724 0.0120445
2727 0.0151973
2730 0.0189807
2733 0.0230407
2736 0.0232649
2739 0.0204402
2742 0.0168402
2745 0.0150357
2748 0.0118058
2751 0.00837537
2754 0.00567989
2757 0.00446845
2760 0.00466656
2763 0.00621335
2766 0.00794713
2769 0.00955443
2772 0.0120578
2775 0.0136295
2778 0.0153125
2781 0.0151047
2784 0.0114619
2787 0.0110465
2790 0.0117369
2793 0.00902881
2796 0.00597909
2799 0.00542545
2802 0.00485538
2805 0.00518258
2808 0.00699111
2811 0.00878938
2814 0.00939474
2817 0.0130431
2820 0.0141832
2823 0.0114727
2826 0.00645793
2829 0.00141066
2832 0.000307067
2835 0.000480691
2838 0.000490457
2841 0.000512694
2844 0.00159962
2847 0.00266295
2850 0.00463354
2853 0.00688999
2856 0.00718853
2859 0.0075192
2862 0.00734922
2865 0.00711612
2868 0.00808163
2871 0.00782991
2874 0.00519045
2877 0.00450277
2880 0.00481276
2883 0.00709495
2886 0.00933797
2889 0.0141818
2892 0.0171069
2895 0.019628
2898 0.0198836
2901 0.018399
2904 0.0189276
2907 0.0191467
2910 0.0152445
2913 0.0105547
2916 0.00801457
2919 0.00759762
2922 0.00776944
2925 0.00769705
2928 0.00587197
2931 0.00315938
2934 0.00480293
2937 0.00735973
2940 0.00843666
2943 0.00788726
2946 0.00609764
2949 0.00507964
2952 0.00503466
2955 0.00600202
2958 0.00651011
2961 0.00553343
2964 0.00463547
2967 0.00629851
2970 0.00593418
2973 0.00709171
2976 0.00739875
2979 0.00748544
2982 0.00744883
2985 0.00605263
2988 0.00151821
2991 0.000664419
2994 0.000395058
2997 0.000191224
3000 7.2079e-05
3003 0.000643689
3006 0.00236689
3009 0.00280896
3012 0.00441549
3015 0.00357926
3018 0.00313762
3021 0.00503718
3024 0.00723706
3027 0.00784536
3030 0.00716355
3033 0.00646467
3036 0.00640706
3039 0.00536377
3042 0.00689162
3045 0.00705885
3048 0.00709628
3051 0.00637495
3054 0.00564961
3057 0.00466395
3060 0.00568964
3063 0.00886188
3066 0.00953559
3069 0.00892758
3072 0.0075831
3075 0.0084944
3078 0.0087438
3081 0.00866902
3084 0.0089917
3087 0.00890316
3090 0.00841666
3093 0.00830597
3096 0.00842676
3099 0.0104463
3102 0.00910823
3105 0.00611921
3108 0.00539567
3111 0.00560652
3114 0.00731373
3117 0.00913555
3120 0.0099194
3123 0.0126012
3126 0.0156199
3129 0.0168526
3132 0.0137333
3135 0.0107154
3138 0.00816439
3141 0.00750803
3144 0.00485619
3147 0.00264105
3150 0.00222373
3153 0.00194253
3156 0.00399076
3159 0.00381075
3162 0.00590043
3165 0.00797875
3168 0.00837584
3171 0.00812753
3174 0.00771098
3177 0.00792195
3180 0.00686324
3183 0.00690004
3186 0.0088248
3189 0.00991963
3192 0.011943
3195 0.013224
3198 0.0143083
3201 0.0160248
3204 0.0157759
3207 0.0135166
3210 0.0126472
3213 0.00903555
3216 0.00601342
3219 0.00464855
3222 0.00291491
3225 0.00146933
3228 0.00191323
3231 0.00276446
3234 0.00357263
3237 0.00133357
3240 1.89403e-05
3243 0.00176867
3246 0.0018307
3249 0.00193297
3252 0.00267829
3255 0.00367248
3258 0.00438431
3261 0.00560847
3264 0.00640303
3267 0.00700399
3270 0.00826946
3273 0.00900452
3276 0.00975639
3279 0.00614811
3282 0.00578801
3285 0.00387682
3288 0.00259735
3291 0.00324527
3294 0.000926185
3297 0.000775697
3300 0.000974819
3303 0.00193339
3306 0.00305128
3309 0.00255527
3312 0.00309514
3315 0.00308071
3318 0.00259672
3321 0.00269788
3324 0.00333267
3327 0.0029592
3330 0.00478342
3333 0.0061075
3336 0.00857893
3339 0.00797439
3342 0.00795356
3345 0.00684121
3348 0.00869385
3351 0.00857073
3354 0.00873843
3357 0.00745358
3360 0.00473421
3363 0.00448581
3366 0.0046235
3369 0.00294153
3372 0.00369327
3375 0.00443695
3378 0.00159668
3381 0.00663672
3384 0.00598473
3387 0.00695707
3390 0.00436916
3393 0.00697724
3396 0.00551937
3399 0.00605511
3402 0.00575533
3405 0.00445694
3408 0.00374043
3411 0.00558513
3414 0.00445353
3417 0.00201508
3420 0.00022955
3423 0.00247072
3426 0.00467781
3429 0.00160654
3432 0.00583007
3435 0.00303889
3438 0.0057203
3441 0.00908193
3444 0.00676946
3447 0.00791638
3450 0.00793961
3453 0.00636168
3456 0.00634692
3459 0.00688751
3462 0.00731342
3465 0.00874906
3468 0.00628267
3471 0.000619184
3474 0.0111009
3477 0.00181662
3480 0.00560826
3483 0.0165775
3486 0.000255262
3487 0.00368438