File: constrainednmf/example_data/BaTiO3_xrd_ramp/BTO_415K_tth.xy
0.000000000000000000e+00 0.000290786
3 0.000390243
6 0.000626944
9 0.00267697
12 0.0121342
15 0.0139011
18 0.0132277
21 0.0124996
24 0.0128777
27 0.0128199
30 0.0103926
33 0.00422566
36 0.00301336
39 0.00299735
42 0.00308041
45 0.00311822
48 0.00310755
51 0.00306918
54 0.00310081
57 0.00313743
60 0.00319937
63 0.00321751
66 0.00319931
69 0.00323864
72 0.00325297
75 0.00337894
78 0.00344928
81 0.00353451
84 0.00366287
87 0.0036921
90 0.00362896
93 0.00346071
96 0.00347797
99 0.00343989
102 0.00338491
105 0.00335395
108 0.00334652
111 0.00328866
114 0.00334868
117 0.0033099
120 0.0032192
123 0.00319827
126 0.00319508
129 0.00319082
132 0.00318618
135 0.00315432
138 0.0031194
141 0.00304431
144 0.00292292
147 0.00301889
150 0.00291742
153 0.00291169
156 0.00289604
159 0.00282146
162 0.00280313
165 0.0027754
168 0.00267736
171 0.00264278
174 0.00262395
177 0.00264149
180 0.00263951
183 0.00253248
186 0.00249177
189 0.00247608
192 0.00243823
195 0.00242882
198 0.00237963
201 0.00238294
204 0.00222883
207 0.00222372
210 0.00226891
213 0.00230882
216 0.00226815
219 0.00219384
222 0.00220486
225 0.00222337
228 0.00222253
231 0.00220455
234 0.00217356
237 0.00227954
240 0.002163
243 0.00218254
246 0.00230914
249 0.00232836
252 0.00225613
255 0.00227891
258 0.00224747
261 0.00227762
264 0.00237374
267 0.00239873
270 0.00242393
273 0.00247726
276 0.00258164
279 0.00267866
282 0.00269893
285 0.00273319
288 0.00270813
291 0.00267182
294 0.00265481
297 0.00246793
300 0.0022676
303 0.00218902
306 0.00207594
309 0.00203817
312 0.00212798
315 0.00208819
318 0.00218742
321 0.00238686
324 0.00305011
327 0.00612697
330 0.0301038
333 0.115661
336 0.0524065
339 0.00706175
342 0.00266039
345 0.00180042
348 0.00148346
351 0.00127362
354 0.00152945
357 0.00267302
360 0.00413037
363 0.00312446
366 0.00175537
369 0.00103621
372 0.000795833
375 0.000797925
378 0.000702966
381 0.000769176
384 0.00089254
387 0.00082139
390 0.000776498
393 0.000864682
396 0.000795647
399 0.000837466
402 0.000900886
405 0.000896936
408 0.000981865
411 0.00125942
414 0.00140936
417 0.00129021
420 0.00115115
423 0.00125681
426 0.00144871
429 0.00126113
432 0.00122903
435 0.00149782
438 0.00169011
441 0.00195406
444 0.00210838
447 0.00245384
450 0.0032663
453 0.00368778
456 0.00480639
459 0.00640426
462 0.0100308
465 0.0209581
468 0.0845281
471 0.692973
474 0.718375
477 0.0934086
480 0.0198549
483 0.00943693
486 0.00618573
489 0.00438686
492 0.00325857
495 0.00255983
498 0.00187488
501 0.00169726
504 0.00189788
507 0.00235891
510 0.00240716
513 0.00189977
516 0.00176143
519 0.00100353
522 0.000712671
525 0.000477148
528 0.00046434
531 0.000319018
534 0.000247939
537 0.000373566
540 0.000189399
543 0.000279062
546 0.000314112
549 0.000509562
552 0.000407419
555 0.000577094
558 0.00099664
561 0.0011008
564 0.00156769
567 0.00231084
570 0.00387732
573 0.0107496
576 0.0711796
579 0.374225
582 0.0913242
585 0.0118163
588 0.00438964
591 0.00235781
594 0.00173948
597 0.00134137
600 0.0011418
603 0.000716717
606 0.00068269
609 0.000426671
612 0.000763971
615 0.000671133
618 0.00068217
621 0.00132128
624 0.00192868
627 0.00144053
630 0.00140669
633 0.00163509
636 0.00161057
639 0.00157252
642 0.00165977
645 0.00186865
648 0.0024884
651 0.00368392
654 0.00536191
657 0.00884287
660 0.0175054
663 0.0519145
666 0.176953
669 0.352395
672 0.222285
675 0.0372742
678 0.0120217
681 0.0063835
684 0.00409855
687 0.00370253
690 0.0031485
693 0.00249115
696 0.00162997
699 0.00122379
702 0.000875019
705 0.000975541
708 0.000689573
711 0.000701942
714 0.000700863
717 0.000794279
720 0.000919497
723 0.00102842
726 0.000977719
729 0.00104996
732 0.00141639
735 0.00209043
738 0.00381411
741 0.00891014
744 0.0348857
747 0.110275
750 0.112883
753 0.0212914
756 0.00503019
759 0.0025401
762 0.00156503
765 0.00101677
768 0.00100909
771 0.00105104
774 0.00109901
777 0.00105007
780 0.0010069
783 0.00126171
786 0.00138072
789 0.0015767
792 0.00211445
795 0.00255266
798 0.00290992
801 0.00408268
804 0.0056838
807 0.00841268
810 0.0149357
813 0.0373636
816 0.161626
819 0.563651
822 0.377419
825 0.0585307
828 0.0173394
831 0.00872698
834 0.00559455
837 0.00411605
840 0.00306284
843 0.00240584
846 0.00211306
849 0.00155355
852 0.00133603
855 0.00117886
858 0.00115244
861 0.00135219
864 0.000981479
867 0.000683563
870 0.00046669
873 0.000586192
876 0.000641447
879 0.000949993
882 0.00100548
885 0.000584348
888 0.000743853
891 0.000498702
894 0.000588125
897 0.000679973
900 0.000505783
903 0.000410085
906 0.000594837
909 0.000399262
912 0.000419099
915 0.000873425
918 0.000843358
921 0.00114023
924 0.00128828
927 0.00174286
930 0.00272003
933 0.00407422
936 0.00757202
939 0.0165975
942 0.0594032
945 0.275276
948 0.308574
951 0.0856548
954 0.0189121
957 0.00758075
960 0.00424546
963 0.00276953
966 0.00216461
969 0.00176167
972 0.00137498
975 0.00186537
978 0.00174021
981 0.00125206
984 0.00118199
987 0.00137354
990 0.0017009
993 0.00251971
996 0.00558381
999 0.0155791
1002 0.0589748
1005 0.106468
1008 0.0351022
1011 0.00733756
1014 0.0029681
1017 0.00194773
1020 0.00164803
1023 0.0011001
1026 0.00134092
1029 0.00107962
1032 0.00172527
1035 0.00191691
1038 0.00281929
1041 0.00369224
1044 0.00579096
1047 0.0102821
1050 0.0223923
1053 0.0637184
1056 0.1349
1059 0.227779
1062 0.186452
1065 0.0415287
1068 0.0138286
1071 0.00715376
1074 0.00440392
1077 0.00329216
1080 0.00281142
1083 0.00235837
1086 0.00199975
1089 0.00200622
1092 0.00231702
1095 0.00285282
1098 0.00447984
1101 0.00861314
1104 0.0220024
1107 0.0620946
1110 0.110145
1113 0.123162
1116 0.0288857
1119 0.00828461
1122 0.00368021
1125 0.00179355
1128 0.00119927
1131 0.00104636
1134 0.000782164
1137 0.000624303
1140 0.000971917
1143 0.00110227
1146 0.00177658
1149 0.00262836
1152 0.00514035
1155 0.0156983
1158 0.0864465
1161 0.153978
1164 0.0279914
1167 0.00643617
1170 0.00283695
1173 0.00178924
1176 0.00125302
1179 0.000777653
1182 0.000718421
1185 0.000735619
1188 0.00118079
1191 0.00112088
1194 0.0017364
1197 0.00267577
1200 0.00547408
1203 0.0157081
1206 0.0388238
1209 0.0461008
1212 0.0179737
1215 0.00501721
1218 0.00304938
1221 0.00241771
1224 0.00237646
1227 0.00301197
1230 0.00293822
1233 0.00371076
1236 0.00504831
1239 0.00735299
1242 0.0120496
1245 0.0249004
1248 0.0734567
1251 0.23253
1254 0.370742
1257 0.160961
1260 0.0354215
1263 0.0138372
1266 0.00737776
1269 0.00486547
1272 0.00362133
1275 0.00236608
1278 0.00181899
1281 0.00118906
1284 0.000837701
1287 0.000833904
1290 0.00069611
1293 0.00045935
1296 0.000403682
1299 0.000263069
1302 0.000344256
1305 0.000353939
1308 0.000447085
1311 0.000311425
1314 0.000358632
1317 0.000475871
1320 0.000814163
1323 0.00117487
1326 0.00212878
1329 0.00378523
1332 0.00955883
1335 0.0180462
1338 0.0199699
1341 0.0382364
1344 0.0375543
1347 0.010577
1350 0.00406509
1353 0.00196608
1356 0.00158776
1359 0.00115869
1362 0.00134365
1365 0.00168662
1368 0.00256978
1371 0.00452695
1374 0.00981814
1377 0.0220144
1380 0.0478426
1383 0.0674463
1386 0.0265159
1389 0.00754359
1392 0.00331151
1395 0.00249922
1398 0.0022694
1401 0.00284317
1404 0.00346017
1407 0.00515698
1410 0.00920202
1413 0.0198562
1416 0.0481008
1419 0.0911803
1422 0.139009
1425 0.124529
1428 0.0345806
1431 0.0124595
1434 0.00695978
1437 0.00424144
1440 0.00352779
1443 0.00305186
1446 0.00292673
1449 0.00341556
1452 0.00518092
1455 0.0119683
1458 0.0418422
1461 0.0666968
1464 0.0365244
1467 0.010076
1470 0.00448958
1473 0.00317607
1476 0.00282422
1479 0.00317007
1482 0.0038599
1485 0.00603976
1488 0.0103101
1491 0.0226391
1494 0.0540585
1497 0.0803051
1500 0.132102
1503 0.0827941
1506 0.0231071
1509 0.00927849
1512 0.00524896
1515 0.00376028
1518 0.00284258
1521 0.00315979
1524 0.00354289
1527 0.00616642
1530 0.0140986
1533 0.0259699
1536 0.0405043
1539 0.0399388
1542 0.0120511
1545 0.00416749
1548 0.00200406
1551 0.00189342
1554 0.00171569
1557 0.0018014
1560 0.0025287
1563 0.00493219
1566 0.0108665
1569 0.0396243
1572 0.107255
1575 0.0591832
1578 0.0129235
1581 0.00495192
1584 0.0027122
1587 0.00170231
1590 0.00139205
1593 0.00117971
1596 0.000682792
1599 0.00053342
1602 0.000674338
1605 0.000778476
1608 0.00061771
1611 0.000837881
1614 0.000960756
1617 0.000913942
1620 0.00105871
1623 0.00185091
1626 0.00234907
1629 0.00416282
1632 0.00678292
1635 0.0150323
1638 0.0398736
1641 0.073896
1644 0.114871
1647 0.0447918
1650 0.0121196
1653 0.00577527
1656 0.00403291
1659 0.00326219
1662 0.00320403
1665 0.00355755
1668 0.00515387
1671 0.00873012
1674 0.0160364
1677 0.0209833
1680 0.0175512
1683 0.00813772
1686 0.00489714
1689 0.00495644
1692 0.0059584
1695 0.00794772
1698 0.0130149
1701 0.0251909
1704 0.0506238
1707 0.098042
1710 0.147263
1713 0.137372
1716 0.0537321
1719 0.0188001
1722 0.0102128
1725 0.00709485
1728 0.00604171
1731 0.00655797
1734 0.00964088
1737 0.0149771
1740 0.0196327
1743 0.0359598
1746 0.0335619
1749 0.0123502
1752 0.00482811
1755 0.00219225
1758 0.0011486
1761 0.00129337
1764 0.00112352
1767 0.000728309
1770 0.000468023
1773 0.00055584
1776 0.000450546
1779 0.000504723
1782 0.000408106
1785 0.000581943
1788 0.000924862
1791 0.0011881
1794 0.00253414
1797 0.00459405
1800 0.0101286
1803 0.0219336
1806 0.0389529
1809 0.036893
1812 0.0131789
1815 0.00571188
1818 0.00413076
1821 0.00481198
1824 0.00678205
1827 0.0116202
1830 0.0242528
1833 0.0364401
1836 0.0431829
1839 0.0778772
1842 0.057288
1845 0.0173356
1848 0.00730064
1851 0.00393491
1854 0.00245636
1857 0.00128932
1860 0.000888692
1863 0.00101455
1866 0.000806004
1869 7.09661e-05
1872 0.000311957
1875 0.000405884
1878 0.000464968
1881 0.000753704
1884 0.000911886
1887 0.002042
1890 0.00347277
1893 0.0105958
1896 0.0260576
1899 0.0236625
1902 0.0168623
1905 0.00659336
1908 0.00259605
1911 0.00205742
1914 0.00178594
1917 0.00229743
1920 0.00456364
1923 0.00965132
1926 0.0169161
1929 0.0198688
1932 0.0133388
1935 0.00514941
1938 0.00311189
1941 0.00340804
1944 0.00445498
1947 0.00756395
1950 0.0157342
1953 0.0339505
1956 0.0665766
1959 0.06606
1962 0.0269355
1965 0.0100875
1968 0.00547735
1971 0.00450034
1974 0.00533488
1977 0.00805956
1980 0.0158521
1983 0.0226807
1986 0.0330669
1989 0.0296695
1992 0.0124728
1995 0.00546688
1998 0.0044498
2001 0.00517609
2004 0.00751736
2007 0.0122889
2010 0.027206
2013 0.0548053
2016 0.0499073
2019 0.0261624
2022 0.00943529
2025 0.00462054
2028 0.00384523
2031 0.0040162
2034 0.00461025
2037 0.00424255
2040 0.0044093
2043 0.00693242
2046 0.00937777
2049 0.00574059
2052 0.0049643
2055 0.00606267
2058 0.0100132
2061 0.0177257
2064 0.0309562
2067 0.0433285
2070 0.0679374
2073 0.0679633
2076 0.0265203
2079 0.0101604
2082 0.00556715
2085 0.00383353
2088 0.00279586
2091 0.00228114
2094 0.00128909
2097 0.00126178
2100 0.0014701
2103 0.00175538
2106 0.00227999
2109 0.00332278
2112 0.00573301
2115 0.0101728
2118 0.0128946
2121 0.012332
2124 0.0215422
2127 0.0322297
2130 0.0177654
2133 0.00709099
2136 0.00513964
2139 0.00545479
2142 0.00801423
2145 0.0114506
2148 0.0180232
2151 0.0246554
2154 0.0209106
2157 0.00945593
2160 0.00496326
2163 0.00437852
2166 0.00541903
2169 0.0106088
2172 0.0238109
2175 0.0386676
2178 0.0368379
2181 0.0256814
2184 0.00994909
2187 0.00477098
2190 0.00302577
2193 0.00344539
2196 0.00454362
2199 0.00841978
2202 0.0131901
2205 0.013689
2208 0.00547673
2211 0.00273903
2214 0.00320396
2217 0.00486915
2220 0.00854144
2223 0.0113064
2226 0.0120847
2229 0.0222821
2232 0.0258145
2235 0.0108774
2238 0.00509227
2241 0.00354791
2244 0.00389925
2247 0.00612207
2250 0.0105947
2253 0.0153178
2256 0.0148689
2259 0.00837065
2262 0.00425595
2265 0.00436081
2268 0.00641007
2271 0.0117493
2274 0.0152362
2277 0.0181157
2280 0.0301637
2283 0.025996
2286 0.010755
2289 0.00427516
2292 0.00207615
2295 0.00111962
2298 0.000598464
2301 0.000969624
2304 0.000588979
2307 0.000238536
2310 0.00036472
2313 0.000582555
2316 0.000568505
2319 0.000889019
2322 0.00214084
2325 0.00578424
2328 0.0121664
2331 0.00661552
2334 0.00263264
2337 0.00166689
2340 0.00215045
2343 0.00356016
2346 0.00482301
2349 0.00627012
2352 0.00810679
2355 0.0114337
2358 0.00772589
2361 0.00592258
2364 0.00695429
2367 0.0102882
2370 0.0156984
2373 0.0297062
2376 0.0477465
2379 0.044996
2382 0.0255643
2385 0.0117021
2388 0.00784163
2391 0.00744392
2394 0.00796275
2397 0.0111195
2400 0.0131042
2403 0.0143216
2406 0.0120828
2409 0.00647367
2412 0.00510743
2415 0.00668857
2418 0.00973464
2421 0.0130071
2424 0.017532
2427 0.016203
2430 0.0110618
2433 0.00652512
2436 0.00552093
2439 0.00602874
2442 0.00753469
2445 0.00846595
2448 0.0114518
2451 0.0122213
2454 0.00920414
2457 0.00848889
2460 0.01134
2463 0.0164186
2466 0.0217184
2469 0.0300349
2472 0.0403791
2475 0.0375416
2478 0.0168617
2481 0.00823005
2484 0.00484852
2487 0.00403574
2490 0.00324324
2493 0.0031606
2496 0.00326941
2499 0.00322725
2502 0.00369748
2505 0.00505828
2508 0.00839879
2511 0.0157537
2514 0.0227458
2517 0.0312176
2520 0.0270492
2523 0.0127032
2526 0.00633482
2529 0.00511298
2532 0.00418711
2535 0.00507077
2538 0.0078597
2541 0.00837244
2544 0.00578602
2547 0.00327675
2550 0.00391165
2553 0.00496048
2556 0.00495762
2559 0.00535635
2562 0.00782008
2565 0.00987105
2568 0.00675374
2571 0.00474816
2574 0.00552152
2577 0.00716193
2580 0.00954738
2583 0.0135009
2586 0.0157365
2589 0.0100544
2592 0.00484194
2595 0.00201957
2598 0.00177754
2601 0.00146676
2604 0.00176221
2607 0.00116312
2610 0.00134485
2613 0.00171479
2616 0.00236263
2619 0.00331191
2622 0.00568925
2625 0.00806641
2628 0.00885738
2631 0.00829954
2634 0.00572351
2637 0.00606089
2640 0.00979274
2643 0.0147975
2646 0.0203666
2649 0.0255346
2652 0.0268842
2655 0.01733
2658 0.00683405
2661 0.00352836
2664 0.00194542
2667 0.00180216
2670 0.00140943
2673 0.000864126
2676 0.00117531
2679 0.00107592
2682 0.00152634
2685 0.000715534
2688 0.00164082
2691 0.00215802
2694 0.0023274
2697 0.00378766
2700 0.00300597
2703 0.00283631
2706 0.00430722
2709 0.00623898
2712 0.00800209
2715 0.00813767
2718 0.00855138
2721 0.0076151
2724 0.00810296
2727 0.0107221
2730 0.0138461
2733 0.0218576
2736 0.0242854
2739 0.0182763
2742 0.0104066
2745 0.00529725
2748 0.00465666
2751 0.00358282
2754 0.00409634
2757 0.00579372
2760 0.00556302
2763 0.00396417
2766 0.00518057
2769 0.00697592
2772 0.00993733
2775 0.015031
2778 0.0178201
2781 0.0117836
2784 0.00730043
2787 0.00516605
2790 0.00506367
2793 0.00481982
2796 0.00583168
2799 0.00772209
2802 0.00603294
2805 0.00339436
2808 0.00337786
2811 0.00642515
2814 0.0104682
2817 0.0135015
2820 0.00967098
2823 0.00487716
2826 0.00205546
2829 0.00121815
2832 0.000231325
2835 0.00170411
2838 0.00116892
2841 0.00157238
2844 0.00189093
2847 0.0032022
2850 0.00438388
2853 0.00619474
2856 0.00663438
2859 0.00858668
2862 0.00919961
2865 0.00562245
2868 0.0032646
2871 0.00346002
2874 0.00443044
2877 0.00387538
2880 0.00478555
2883 0.00575757
2886 0.00744667
2889 0.00914935
2892 0.0118985
2895 0.0145795
2898 0.0214672
2901 0.0211848
2904 0.0122265
2907 0.00604438
2910 0.0058636
2913 0.0069027
2916 0.00796317
2919 0.00620417
2922 0.00402068
2925 0.00345553
2928 0.00306512
2931 0.00495564
2934 0.00626594
2937 0.00602118
2940 0.00549157
2943 0.00417282
2946 0.00208785
2949 0.00275506
2952 0.00400832
2955 0.00585669
2958 0.00618239
2961 0.00432637
2964 0.00293479
2967 0.00409519
2970 0.00536688
2973 0.00679843
2976 0.00726915
2979 0.00647269
2982 0.00311748
2985 0.00142846
2988 0.00213472
2991 0.000679305
2994 0.00120382
2997 0.00105532
3000 0.000436784
3003 0.00189622
3006 0.00207762
3009 0.0019004
3012 0.00351213
3015 0.00383039
3018 0.00615622
3021 0.00461075
3024 0.00318402
3027 0.0046558
3030 0.00504917
3033 0.005655
3036 0.00546741
3039 0.00487822
3042 0.0043209
3045 0.00314196
3048 0.00350922
3051 0.0051857
3054 0.00697892
3057 0.00763143
3060 0.00550485
3063 0.00443588
3066 0.00435046
3069 0.00595269
3072 0.00792664
3075 0.00842363
3078 0.00648401
3081 0.00682498
3084 0.00523482
3087 0.00637748
3090 0.00858502
3093 0.00972573
3096 0.00722278
3099 0.00431597
3102 0.00360065
3105 0.00305496
3108 0.00340925
3111 0.00557856
3114 0.00582304
3117 0.00558568
3120 0.00773598
3123 0.0112422
3126 0.0126184
3129 0.0123378
3132 0.0099921
3135 0.00635701
3138 0.00400276
3141 0.00227461
3144 0.00255995
3147 0.00198805
3150 0.00420742
3153 0.00197595
3156 0.00367533
3159 0.00545695
3162 0.00761317
3165 0.00557512
3168 0.00598736
3171 0.00423327
3174 0.00353957
3177 0.00570555
3180 0.00664558
3183 0.00806677
3186 0.00686233
3189 0.00750781
3192 0.00779076
3195 0.00862046
3198 0.0122281
3201 0.0155092
3204 0.0109369
3207 0.00788922
3210 0.0039792
3213 0.00308369
3216 0.00320856
3219 0.00506849
3222 0.00574086
3225 0.00331782
3228 0.00330282
3231 0.00117593
3234 0.00289639
3237 0.00206885
3240 0.0011185
3243 0.00230764
3246 0.00226535
3249 0.00272635
3252 0.00278904
3255 0.00325033
3258 0.00409211
3261 0.00342419
3264 0.00556754
3267 0.00463593
3270 0.00792574
3273 0.00743406
3276 0.0067474
3279 0.00485986
3282 0.00371198
3285 0.000196329
3288 2.87349e-05
3291 0.000806587
3294 0.0012261
3297 0.00215656
3300 0.00301206
3303 0.00491584
3306 0.00468394
3309 0.00416091
3312 0.00288536
3315 0.00191135
3318 0.00205432
3321 0.00256751
3324 0.00378421
3327 0.00470173
3330 0.00272843
3333 0.0062112
3336 0.00569086
3339 0.00768083
3342 0.00894329
3345 0.00864174
3348 0.00887258
3351 0.00384273
3354 0.00584762
3357 0.00564275
3360 0.00519919
3363 0.00436557
3366 0.00396029
3369 0.00365763
3372 0.00291573
3375 0.00674026
3378 0.00500405
3381 0.00439484
3384 0.00350819
3387 0.00604476
3390 0.00517054
3393 0.00661024
3396 0.00735885
3399 0.00682626
3402 0.00534329
3405 0.00443265
3408 0.00575095
3411 0.00294991
3414 0.00365868
3417 0.00412513
3420 0.00148974
3423 0.00568423
3426 0.00548246
3429 0.00549198
3432 0.00656331
3435 0.00387699
3438 0.0063558
3441 0.00538965
3444 0.00853868
3447 0.0122665
3450 0.0105963
3453 0.00760179
3456 0.00598249
3459 0.00824075
3462 0.00953576
3465 0.00203485
3468 0.00401056
3471 0.00662948
3474 0.0135939
3477 0.0143085
3480 0.00672173
3483 0.0122783
3486 0.0199488
3487 0.0554563