File: constrainednmf/example_data/BaTiO3_xrd_ramp/BTO_360K_tth.xy
0.000000000000000000e+00 3.53939e-05
3 0.000133794
6 0.00038371
9 0.00240064
12 0.0121878
15 0.0140676
18 0.0133803
21 0.0126154
24 0.0130249
27 0.0129344
30 0.0104437
33 0.00406613
36 0.00281405
39 0.00281122
42 0.00291173
45 0.00293826
48 0.00292224
51 0.00285822
54 0.00288559
57 0.0029995
60 0.00302039
63 0.00307272
66 0.00303953
69 0.00309648
72 0.00314111
75 0.0031883
78 0.00328919
81 0.00345644
84 0.00354834
87 0.00355309
90 0.00352342
93 0.00350542
96 0.00337759
99 0.0033364
102 0.00330684
105 0.00328106
108 0.00330303
111 0.00324297
114 0.00326777
117 0.00319013
120 0.00320541
123 0.00315034
126 0.00304503
129 0.00316074
132 0.00310016
135 0.00303226
138 0.00302198
141 0.00293079
144 0.00304302
147 0.00298086
150 0.0028905
153 0.00288079
156 0.00287391
159 0.00284557
162 0.00272498
165 0.0027688
168 0.00271594
171 0.00270107
174 0.00268576
177 0.00255814
180 0.00259743
183 0.00247199
186 0.00246134
189 0.00241515
192 0.00245938
195 0.00242733
198 0.00240256
201 0.00233042
204 0.00223885
207 0.00228014
210 0.0023287
213 0.00224249
216 0.00220545
219 0.00217859
222 0.00221993
225 0.00219444
228 0.00226004
231 0.00225087
234 0.00222996
237 0.00220614
240 0.00222856
243 0.00225761
246 0.00228304
249 0.00215598
252 0.00227039
255 0.0022885
258 0.00221898
261 0.00231819
264 0.00236842
267 0.00244412
270 0.00238782
273 0.00238124
276 0.00242228
279 0.00256143
282 0.00269465
285 0.00276914
288 0.00281176
291 0.00272613
294 0.00271568
297 0.0025534
300 0.00234739
303 0.00229676
306 0.00217863
309 0.00214822
312 0.0021642
315 0.00214629
318 0.00221842
321 0.00243511
324 0.00311246
327 0.00678525
330 0.0360649
333 0.105758
336 0.0659659
339 0.00862283
342 0.00290313
345 0.0019806
348 0.00162935
351 0.00135104
354 0.00137058
357 0.0024409
360 0.00439472
363 0.0033085
366 0.00188027
369 0.00107215
372 0.000807986
375 0.000689382
378 0.000651299
381 0.000758479
384 0.000655542
387 0.000696967
390 0.000645083
393 0.000737318
396 0.000755416
399 0.000830938
402 0.000820254
405 0.00071623
408 0.000823479
411 0.00120447
414 0.00136909
417 0.00136528
420 0.00110747
423 0.00123133
426 0.00148608
429 0.00118653
432 0.00130732
435 0.00121378
438 0.00151064
441 0.00185311
444 0.00210957
447 0.00265308
450 0.00309773
453 0.0038896
456 0.00478518
459 0.00665323
462 0.0101922
465 0.0212829
468 0.08703
471 0.703871
474 0.781898
477 0.123957
480 0.0229494
483 0.0100981
486 0.00627738
489 0.00441886
492 0.00330498
495 0.00256234
498 0.00191256
501 0.00173121
504 0.00162592
507 0.00222537
510 0.00245618
513 0.00199998
516 0.0016603
519 0.000854103
522 0.000428265
525 0.000368639
528 0.000254258
531 0.000144251
534 0.000318395
537 2.94679e-05
540 0.00016077
543 0.00021474
546 0.000230114
549 0.000285973
552 0.000378022
555 0.000518817
558 0.000770795
561 0.00115121
564 0.00150813
567 0.00232573
570 0.00388307
573 0.0104718
576 0.0667701
579 0.388273
582 0.112864
585 0.0135965
588 0.00470871
591 0.00260838
594 0.00176952
597 0.00128573
600 0.0010004
603 0.000730092
606 0.000278769
609 0.000635436
612 0.000474844
615 0.000643859
618 0.000545989
621 0.000989831
624 0.00195487
627 0.00172454
630 0.00140932
633 0.00135376
636 0.00153771
639 0.00156201
642 0.00154277
645 0.00176525
648 0.0023666
651 0.00348264
654 0.00538909
657 0.00898743
660 0.0200263
663 0.0767981
666 0.191135
669 0.248122
672 0.326229
675 0.0556772
678 0.014488
681 0.00685913
684 0.00428707
687 0.0035978
690 0.00368879
693 0.00275298
696 0.00174926
699 0.00111948
702 0.0009579
705 0.000766854
708 0.000652507
711 0.000609728
714 0.000564572
717 0.000540043
720 0.000671819
723 0.000913545
726 0.000893226
729 0.00086148
732 0.00138799
735 0.0020832
738 0.00376021
741 0.0103569
744 0.0465087
747 0.0890308
750 0.126133
753 0.0341827
756 0.0065577
759 0.00244477
762 0.00160857
765 0.00113197
768 0.000733279
771 0.00082348
774 0.000962979
777 0.000754935
780 0.0011263
783 0.00105892
786 0.00139925
789 0.00163819
792 0.00194838
795 0.00240004
798 0.00315991
801 0.003854
804 0.0054081
807 0.00833349
810 0.0150528
813 0.0408029
816 0.190441
819 0.474169
822 0.504123
825 0.083953
828 0.0202816
831 0.00957475
834 0.0059901
837 0.00412785
840 0.00307474
843 0.0022355
846 0.00194771
849 0.00151395
852 0.00132176
855 0.00115043
858 0.00101344
861 0.00111383
864 0.000613101
867 0.000440013
870 0.000473515
873 0.000361806
876 0.000138998
879 0.000261836
882 0.000662551
885 0.000677547
888 0.000429009
891 0.000644367
894 0.000450601
897 0.000253543
900 0.000109378
903 0.000130863
906 0.000382287
909 0.000290004
912 0.000482083
915 0.00049869
918 0.000621396
921 0.000931871
924 0.00125385
927 0.00180202
930 0.00253029
933 0.00384729
936 0.00737845
939 0.0168704
942 0.0638636
945 0.288302
948 0.276328
951 0.143598
954 0.0270055
957 0.00897155
960 0.00469161
963 0.0028596
966 0.0020583
969 0.0016822
972 0.00161145
975 0.00170373
978 0.00157958
981 0.00151123
984 0.00117606
987 0.001239
990 0.00155834
993 0.00285754
996 0.00658813
999 0.0178469
1002 0.0574751
1005 0.098718
1008 0.052873
1011 0.010872
1014 0.00369373
1017 0.00187667
1020 0.00126994
1023 0.00134467
1026 0.00108391
1029 0.00117166
1032 0.00136868
1035 0.00181567
1038 0.00236849
1041 0.00359394
1044 0.00606581
1047 0.0113333
1050 0.0303636
1053 0.103274
1056 0.115428
1059 0.141561
1062 0.260431
1065 0.076898
1068 0.0190366
1071 0.00829568
1074 0.00497081
1077 0.0037487
1080 0.00266876
1083 0.00257638
1086 0.00159882
1089 0.00203957
1092 0.00214512
1095 0.00304156
1098 0.00485642
1101 0.0098187
1104 0.033566
1107 0.0708689
1110 0.0705122
1113 0.140458
1116 0.0542193
1119 0.0114898
1122 0.00424834
1125 0.00234463
1128 0.00156465
1131 0.0013239
1134 0.000817263
1137 0.000636212
1140 0.00104238
1143 0.00127168
1146 0.00158673
1149 0.00243797
1152 0.00483438
1155 0.014538
1158 0.0772245
1161 0.174329
1164 0.0394743
1167 0.00772028
1170 0.00331495
1173 0.00176344
1176 0.00125066
1179 0.000822979
1182 0.000818384
1185 0.000790256
1188 0.000937178
1191 0.00134137
1194 0.00163717
1197 0.00285148
1200 0.00632384
1203 0.0207968
1206 0.0334445
1209 0.0408381
1212 0.0296081
1215 0.00807242
1218 0.00299692
1221 0.00271831
1224 0.00245016
1227 0.00262035
1230 0.00324623
1233 0.00361269
1236 0.00496161
1239 0.00755272
1242 0.0127168
1245 0.0273262
1248 0.094742
1251 0.229737
1254 0.313874
1257 0.247309
1260 0.0597749
1263 0.0178127
1266 0.00888508
1269 0.00520968
1272 0.00368522
1275 0.00252075
1278 0.00190991
1281 0.00126053
1284 0.00124845
1287 0.000842769
1290 0.000558234
1293 0.000643433
1296 0.000873557
1299 0.000379216
1302 0.00021521
1305 0.000327673
1308 0.000440198
1311 0.000251856
1314 0.000628061
1317 0.000526049
1320 0.00124759
1323 0.0018031
1326 0.00247394
1329 0.00668639
1332 0.018348
1335 0.0177502
1338 0.0124491
1341 0.0206252
1344 0.0489067
1347 0.0230901
1350 0.00605541
1353 0.00305173
1356 0.00195558
1359 0.00112524
1362 0.00153949
1365 0.00162528
1368 0.00284056
1371 0.00618666
1374 0.0160986
1377 0.0222471
1380 0.039349
1383 0.0603556
1386 0.0446992
1389 0.0134015
1392 0.00467056
1395 0.00318465
1398 0.00291237
1401 0.00330603
1404 0.00399003
1407 0.00601064
1410 0.0118664
1413 0.0323439
1416 0.0625079
1419 0.0824272
1422 0.0957422
1425 0.140994
1428 0.0775992
1431 0.0190591
1434 0.00865109
1437 0.00496009
1440 0.00400733
1443 0.00336313
1446 0.00314079
1449 0.00376061
1452 0.00536952
1455 0.0132183
1458 0.0458839
1461 0.060214
1464 0.0422206
1467 0.0195244
1470 0.00561606
1473 0.00379481
1476 0.00334322
1479 0.00349347
1482 0.00461982
1485 0.00667781
1488 0.0128651
1491 0.0370845
1494 0.0682133
1497 0.0547932
1500 0.095034
1503 0.119632
1506 0.0494892
1509 0.0141194
1512 0.00669104
1515 0.00437242
1518 0.00347587
1521 0.00373226
1524 0.00428442
1527 0.00856581
1530 0.0222226
1533 0.0228537
1536 0.0258933
1539 0.0460014
1542 0.0249598
1545 0.00700281
1548 0.00322971
1551 0.00204521
1554 0.00175302
1557 0.00222904
1560 0.00261136
1563 0.00484829
1566 0.0110559
1569 0.039161
1572 0.104711
1575 0.0771029
1578 0.0222551
1581 0.00645412
1584 0.00345468
1587 0.00209561
1590 0.0016405
1593 0.0012636
1596 0.00121255
1599 0.00117139
1602 0.00135927
1605 0.00099067
1608 0.000636145
1611 0.000995833
1614 0.000981681
1617 0.0015521
1620 0.00136396
1623 0.00182153
1626 0.00278617
1629 0.00425664
1632 0.00759353
1635 0.0200612
1638 0.0517611
1641 0.0550115
1644 0.0932892
1647 0.0860543
1650 0.0208241
1653 0.00804216
1656 0.00503965
1659 0.00386603
1662 0.00333883
1665 0.00428951
1668 0.00619057
1671 0.0106433
1674 0.0159823
1677 0.0173639
1680 0.0164986
1683 0.0150758
1686 0.00663115
1689 0.00531512
1692 0.00601633
1695 0.00942923
1698 0.0184989
1701 0.0375576
1704 0.0591354
1707 0.0940101
1710 0.114193
1713 0.124813
1716 0.11234
1719 0.0351172
1722 0.0138116
1725 0.00878079
1728 0.00744834
1731 0.00919875
1734 0.0157157
1737 0.0143946
1740 0.0147728
1743 0.0273999
1746 0.0319749
1749 0.0273447
1752 0.00795241
1755 0.00308961
1758 0.00188507
1761 0.000822077
1764 0.000562104
1767 7.91103e-05
1770 0.000324534
1773 0.000439572
1776 4.00024e-05
1779 0.000329771
1782 0.000330779
1785 0.000772001
1788 0.000809457
1791 0.00136444
1794 0.00288138
1797 0.007147
1800 0.0128124
1803 0.0223538
1806 0.0300701
1809 0.0373445
1812 0.0248883
1815 0.00885092
1818 0.00503072
1821 0.00490324
1824 0.00805989
1827 0.0195141
1830 0.0393683
1833 0.0318932
1836 0.0266229
1839 0.0484481
1842 0.0831832
1845 0.0421672
1848 0.0119505
1851 0.00515509
1854 0.00257248
1857 0.00182742
1860 0.00105649
1863 0.00056081
1866 0.000379318
1869 0.000220299
1872 2.24432e-05
1875 0.00060676
1878 0.000193635
1881 0.000190498
1884 0.00109618
1887 0.00181472
1890 0.00419129
1893 0.0125087
1896 0.0282814
1899 0.0185663
1902 0.0149624
1905 0.014455
1908 0.00460012
1911 0.00234851
1914 0.00173742
1917 0.00269579
1920 0.00613268
1923 0.0107676
1926 0.0154975
1929 0.013959
1932 0.0178151
1935 0.0098489
1938 0.00414875
1941 0.00298611
1944 0.00467421
1947 0.00978222
1950 0.0216469
1953 0.0331615
1956 0.0549846
1959 0.0705612
1962 0.0406015
1965 0.0192513
1968 0.00757158
1971 0.00561479
1974 0.00594504
1977 0.0121613
1980 0.0202837
1983 0.0180058
1986 0.0240224
1989 0.0306024
1992 0.0240945
1995 0.00966333
1998 0.00548175
2001 0.00683784
2004 0.00880867
2007 0.011699
2010 0.0278799
2013 0.0530573
2016 0.0413955
2019 0.0387586
2022 0.0195388
2025 0.00712571
2028 0.00501036
2031 0.00589126
2034 0.00445849
2037 0.00318362
2040 0.00326032
2043 0.00420319
2046 0.00728964
2049 0.00952081
2052 0.00633044
2055 0.00827256
2058 0.0147316
2061 0.0236532
2064 0.0356929
2067 0.034058
2070 0.0445457
2073 0.0710809
2076 0.0570025
2079 0.0200671
2082 0.00756126
2085 0.00434815
2088 0.00298894
2091 0.0016269
2094 0.00174601
2097 0.00147415
2100 0.00112962
2103 0.00200128
2106 0.00224012
2109 0.00470665
2112 0.0103957
2115 0.0141617
2118 0.00971591
2121 0.00811685
2124 0.0109252
2127 0.0236625
2130 0.0334767
2133 0.0164348
2136 0.00775485
2139 0.00847095
2142 0.00993641
2145 0.0108954
2148 0.0157642
2151 0.0197901
2154 0.0202094
2157 0.0182956
2160 0.00825746
2163 0.00525184
2166 0.00670061
2169 0.0136122
2172 0.0287374
2175 0.0359199
2178 0.0311183
2181 0.0266993
2184 0.023223
2187 0.00862461
2190 0.00374966
2193 0.00298238
2196 0.00538232
2199 0.00856912
2202 0.00960026
2205 0.0149393
2208 0.00870442
2211 0.00373875
2214 0.00380444
2217 0.00852219
2220 0.0127357
2223 0.00953248
2226 0.00750239
2229 0.0116008
2232 0.0254282
2235 0.0253771
2238 0.00922286
2241 0.00493115
2244 0.00535404
2247 0.00754481
2250 0.0106285
2253 0.0122552
2256 0.0135214
2259 0.0126434
2262 0.00797282
2265 0.00625245
2268 0.0112556
2271 0.0163675
2274 0.0127042
2277 0.0110604
2280 0.019969
2283 0.0307106
2286 0.0248991
2289 0.00927924
2292 0.0033628
2295 0.00173143
2298 0.000979232
2301 0.000477912
2304 0.000346488
2307 4.17476e-05
2310 0.000571799
2313 0.000213701
2316 0.000741628
2319 0.000970989
2322 0.00167466
2325 0.00499492
2328 0.0123038
2331 0.00961965
2334 0.00329028
2337 0.00255092
2340 0.00221798
2343 0.00494329
2346 0.0060864
2349 0.00501666
2352 0.00571828
2355 0.00935628
2358 0.0126097
2361 0.0109255
2364 0.0109729
2367 0.0112355
2370 0.0163151
2373 0.0319334
2376 0.0410544
2379 0.0422623
2382 0.0361365
2385 0.0250956
2388 0.0135389
2391 0.00937939
2394 0.00849864
2397 0.0119728
2400 0.0114772
2403 0.00940847
2406 0.0137972
2409 0.0130725
2412 0.0082069
2415 0.00997489
2418 0.0125151
2421 0.0108526
2424 0.013647
2427 0.0152983
2430 0.0140815
2433 0.0133745
2436 0.0084221
2439 0.00769101
2442 0.00839161
2445 0.00791702
2448 0.00930302
2451 0.0107674
2454 0.0145545
2457 0.0162681
2460 0.0165807
2463 0.0180625
2466 0.0214552
2469 0.0252593
2472 0.0272528
2475 0.0397113
2478 0.0376705
2481 0.0166422
2484 0.007664
2487 0.00488602
2490 0.00338526
2493 0.0033335
2496 0.00334973
2499 0.00318495
2502 0.0037271
2505 0.00605787
2508 0.0122433
2511 0.0187902
2514 0.0178545
2517 0.0245941
2520 0.0285068
2523 0.024309
2526 0.0123283
2529 0.00652533
2532 0.0051979
2535 0.00520287
2538 0.00724971
2541 0.00795931
2544 0.00681998
2547 0.00690141
2550 0.0066423
2553 0.00603897
2556 0.00464812
2559 0.00366091
2562 0.00498972
2565 0.00899752
2568 0.0117736
2571 0.0107038
2574 0.0081186
2577 0.00709738
2580 0.00925498
2583 0.0110258
2586 0.0118661
2589 0.0135564
2592 0.00978125
2595 0.00407296
2598 0.00260502
2601 0.00139583
2604 0.00122967
2607 0.00103059
2610 0.00149202
2613 0.00180619
2616 0.00174597
2619 0.00409264
2622 0.00640428
2625 0.00617396
2628 0.00764247
2631 0.00938143
2634 0.00918668
2637 0.0110113
2640 0.0140179
2643 0.0169276
2646 0.0192097
2649 0.0201862
2652 0.0209898
2655 0.0271913
2658 0.0183796
2661 0.00705915
2664 0.00364818
2667 0.00180786
2670 0.00145832
2673 0.00116729
2676 0.00158414
2679 0.00120437
2682 0.00150073
2685 0.00126285
2688 0.000367058
2691 0.000642302
2694 0.00126153
2697 0.00347105
2700 0.00481574
2703 0.00512579
2706 0.00508154
2709 0.00682346
2712 0.00608938
2715 0.00849747
2718 0.0104604
2721 0.012541
2724 0.0128294
2727 0.0105413
2730 0.0116951
2733 0.0173423
2736 0.022084
2739 0.0210741
2742 0.0201374
2745 0.0127208
2748 0.0070281
2751 0.00465007
2754 0.00387916
2757 0.00468314
2760 0.00788066
2763 0.00793644
2766 0.00540671
2769 0.00696969
2772 0.00944217
2775 0.0114971
2778 0.0165781
2781 0.0175894
2784 0.0143353
2787 0.00931276
2790 0.00539454
2793 0.00351048
2796 0.00431974
2799 0.00557349
2802 0.00758767
2805 0.00675553
2808 0.00559646
2811 0.00867443
2814 0.0121813
2817 0.012532
2820 0.0106668
2823 0.00816105
2826 0.00333543
2829 0.00243258
2832 0.000541728
2835 0.000247229
2838 0.000870227
2841 0.00169959
2844 0.00326
2847 0.00248252
2850 0.00370943
2853 0.0048166
2856 0.00546718
2859 0.00526918
2862 0.00803314
2865 0.0120869
2868 0.00722617
2871 0.00447094
2874 0.00381387
2877 0.00444113
2880 0.00425485
2883 0.00905262
2886 0.0114957
2889 0.0120318
2892 0.0113498
2895 0.0109793
2898 0.0152209
2901 0.0209327
2904 0.0229324
2907 0.0157091
2910 0.00823169
2913 0.00671582
2916 0.00722741
2919 0.0069463
2922 0.0059335
2925 0.0051686
2928 0.00443736
2931 0.00670279
2934 0.00719643
2937 0.00465373
2940 0.00451264
2943 0.00653985
2946 0.00542915
2949 0.00325413
2952 0.00383846
2955 0.00462195
2958 0.00587743
2961 0.00666749
2964 0.00481352
2967 0.00499576
2970 0.00587944
2973 0.00553695
2976 0.00688399
2979 0.00600481
2982 0.00582594
2985 0.00396271
2988 0.00114167
2991 0.00161494
2994 0.000176026
2997 0.000651299
3000 0.00144143
3003 0.00203644
3006 0.00206875
3009 0.00203014
3012 0.00212257
3015 0.00359104
3018 0.00581676
3021 0.00691007
3024 0.00688038
3027 0.00505479
3030 0.00457297
3033 0.00561074
3036 0.00706605
3039 0.00710473
3042 0.00558157
3045 0.00339456
3048 0.00398846
3051 0.00323754
3054 0.00429374
3057 0.00768867
3060 0.0106601
3063 0.00765394
3066 0.00539165
3069 0.00578714
3072 0.00652284
3075 0.00956037
3078 0.011158
3081 0.00894104
3084 0.00525951
3087 0.00514938
3090 0.00639883
3093 0.0102192
3096 0.0120069
3099 0.00804782
3102 0.00504459
3105 0.00587747
3108 0.00506831
3111 0.0066653
3114 0.00510702
3117 0.0066857
3120 0.00955373
3123 0.0117952
3126 0.0130591
3129 0.012444
3132 0.0110313
3135 0.0120086
3138 0.00821402
3141 0.00192741
3144 0.002591
3147 0.00332869
3150 0.00279657
3153 0.00304359
3156 0.0034139
3159 0.00517028
3162 0.00720877
3165 0.00717737
3168 0.00782193
3171 0.00543836
3174 0.00448731
3177 0.00620665
3180 0.00506763
3183 0.00781997
3186 0.00870424
3189 0.0123128
3192 0.0103928
3195 0.00988191
3198 0.0103538
3201 0.0147394
3204 0.0143223
3207 0.0112164
3210 0.006478
3213 0.00440542
3216 0.00234036
3219 0.00310566
3222 0.00438855
3225 0.00493847
3228 0.00198341
3231 0.00229971
3234 0.00246495
3237 0.00125595
3240 0.00176039
3243 0.000641485
3246 0.00204744
3249 0.00236377
3252 0.00314827
3255 0.00462957
3258 0.00461633
3261 0.00458102
3264 0.00537443
3267 0.00690605
3270 0.00674665
3273 0.00506041
3276 0.00619689
3279 0.00890876
3282 0.00446711
3285 0.000463932
3288 0.00103851
3291 0.000856516
3294 0.00203447
3297 0.00117731
3300 0.00242277
3303 0.00267373
3306 0.00298192
3309 0.00380841
3312 0.00272065
3315 0.00341074
3318 0.00413078
3321 0.00546587
3324 0.00181341
3327 0.00459347
3330 0.00610359
3333 0.00533292
3336 0.00428268
3339 0.00498158
3342 0.00699936
3345 0.00936091
3348 0.00905922
3351 0.00758317
3354 0.0066409
3357 0.00582756
3360 0.00419062
3363 0.00209256
3366 0.00221393
3369 0.00501266
3372 0.00584607
3375 0.00395422
3378 0.00551879
3381 0.00505393
3384 0.00630899
3387 0.00405609
3390 0.00824186
3393 0.00663847
3396 0.00459007
3399 0.00797824
3402 0.00640035
3405 0.00282133
3408 0.00571828
3411 0.00558868
3414 0.00272167
3417 0.00368559
3420 0.00773013
3423 0.00592424
3426 0.00600761
3429 0.00520384
3432 0.00150403
3435 0.00938401
3438 0.00676697
3441 0.00868409
3444 0.00577233
3447 0.00829108
3450 0.0110353
3453 0.0108053
3456 0.0110919
3459 0.00837682
3462 0.00978374
3465 0.00518877
3468 0.0134245
3471 0.0135663
3474 0.0122884
3477 0.00210813
3480 0.012359
3483 0.0170688
3486 0.013556
3487 0.0269669