File: constrainednmf/example_data/BaTiO3_xrd_ramp/BTO_375K_tth.xy
0.000000000000000000e+00 0.000797095
3 0.000905594
6 0.00115293
9 0.00325791
12 0.0130647
15 0.0149031
18 0.0141849
21 0.0134524
24 0.0139031
27 0.0138037
30 0.0113565
33 0.00491215
36 0.00368896
39 0.00370639
42 0.00384733
45 0.00385389
48 0.00378535
51 0.00380738
54 0.00381372
57 0.00384949
60 0.00386874
63 0.00391534
66 0.00394369
69 0.0039716
72 0.0040231
75 0.00407575
78 0.00420756
81 0.00430732
84 0.00436984
87 0.00441556
90 0.00427522
93 0.00428379
96 0.00425573
99 0.00411939
102 0.00416936
105 0.00411372
108 0.00410056
111 0.00404984
114 0.0040636
117 0.00396578
120 0.0039483
123 0.00393885
126 0.00398452
129 0.00393162
132 0.00390231
135 0.0038507
138 0.00383981
141 0.00378657
144 0.00384901
147 0.0036793
150 0.00365872
153 0.00361912
156 0.00358735
159 0.00356943
162 0.0035911
165 0.0034907
168 0.00339597
171 0.00343503
174 0.00331755
177 0.00329445
180 0.00335338
183 0.00326474
186 0.00319538
189 0.00315016
192 0.00305897
195 0.00317256
198 0.00308231
201 0.00301345
204 0.00291284
207 0.00296468
210 0.00295003
213 0.00293912
216 0.00289531
219 0.00287071
222 0.00279437
225 0.00288759
228 0.00289297
231 0.00284547
234 0.00284742
237 0.00290087
240 0.00282998
243 0.0028996
246 0.00285346
249 0.00292001
252 0.00289544
255 0.0029365
258 0.00290717
261 0.00302607
264 0.00296335
267 0.00309633
270 0.00300726
273 0.0031544
276 0.00311222
279 0.00323387
282 0.00339984
285 0.00329196
288 0.00338259
291 0.00337149
294 0.00335444
297 0.00313837
300 0.00299158
303 0.00276487
306 0.00277931
309 0.00273638
312 0.00279498
315 0.00280442
318 0.00279547
321 0.00304525
324 0.00370533
327 0.00729748
330 0.0361456
333 0.108474
336 0.0641889
339 0.00892183
342 0.00353298
345 0.00236045
348 0.00218136
351 0.00206765
354 0.00213318
357 0.0032015
360 0.00498506
363 0.00397735
366 0.00249643
369 0.00162254
372 0.00143445
375 0.00135518
378 0.0013943
381 0.00140385
384 0.00149654
387 0.00145656
390 0.00134856
393 0.00131929
396 0.00146795
399 0.00143585
402 0.00155481
405 0.00140559
408 0.00158787
411 0.00174738
414 0.00198582
417 0.00197739
420 0.00174529
423 0.0019116
426 0.00192274
429 0.00188848
432 0.00181038
435 0.00201586
438 0.00211349
441 0.00255599
444 0.00282177
447 0.0031704
450 0.00396043
453 0.00438545
456 0.00542941
459 0.0073048
462 0.0109652
465 0.0219456
468 0.0880996
471 0.707471
474 0.76917
477 0.118177
480 0.023046
483 0.0107104
486 0.00712205
489 0.00516175
492 0.00409009
495 0.00319737
498 0.00248175
501 0.00221978
504 0.00249084
507 0.00298027
510 0.00322273
513 0.00273815
516 0.00236148
519 0.00175966
522 0.00125382
525 0.0010609
528 0.000950452
531 0.000999724
534 0.00066395
537 0.00085473
540 0.000768679
543 0.000960003
546 0.000984721
549 0.00111587
552 0.00115485
555 0.00125718
558 0.00150967
561 0.00192085
564 0.00242483
567 0.00313461
570 0.00465138
573 0.011353
576 0.0688669
579 0.388675
582 0.108363
585 0.0137015
588 0.00528307
591 0.00341698
594 0.0027202
597 0.00201229
600 0.00170245
603 0.00157757
606 0.00109422
609 0.00120085
612 0.00133513
615 0.00131893
618 0.00141623
621 0.00189203
624 0.00273132
627 0.0024225
630 0.00206038
633 0.0023469
636 0.00208569
639 0.00211002
642 0.00228032
645 0.00258529
648 0.00317833
651 0.00422455
654 0.00606755
657 0.00966075
660 0.0200574
663 0.0735046
666 0.192341
669 0.263053
672 0.311178
675 0.051595
678 0.0146391
681 0.00728128
684 0.00493531
687 0.00429714
690 0.00443488
693 0.00325124
696 0.00240322
699 0.00188492
702 0.0014273
705 0.00149736
708 0.00151531
711 0.00124368
714 0.00145772
717 0.00135159
720 0.00143644
723 0.00152215
726 0.0016749
729 0.00155343
732 0.00189198
735 0.00282554
738 0.00439902
741 0.0107917
744 0.0457527
747 0.0928266
750 0.125708
753 0.0316124
756 0.00680537
759 0.00332305
762 0.00218573
765 0.00162511
768 0.00145597
771 0.0014272
774 0.00168223
777 0.0015418
780 0.00160135
783 0.00162175
786 0.00218279
789 0.00227642
792 0.00261959
795 0.00300799
798 0.0036471
801 0.00445738
804 0.00622418
807 0.0090169
810 0.0156742
813 0.0411019
816 0.188476
819 0.489866
822 0.481822
825 0.0784319
828 0.0203761
831 0.00992609
834 0.00660335
837 0.00466786
840 0.00340027
843 0.00318066
846 0.00239477
849 0.00221083
852 0.00189896
855 0.00151283
858 0.00162269
861 0.00125369
864 0.00131125
867 0.00113546
870 0.0010637
873 0.001079
876 0.000843259
879 0.00123709
882 0.00131993
885 0.00122951
888 0.00118255
891 0.00107114
894 0.00107307
897 0.00089836
900 0.00065459
903 0.000724842
906 0.000923514
909 0.000787224
912 0.000876478
915 0.0011103
918 0.0013885
921 0.00148676
924 0.00167623
927 0.00231423
930 0.00296229
933 0.00446333
936 0.00773634
939 0.0171992
942 0.0640467
945 0.289834
948 0.280692
951 0.132954
954 0.0256036
957 0.0092267
960 0.00505163
963 0.00341367
966 0.00262038
969 0.00223667
972 0.00196343
975 0.0021367
978 0.00199764
981 0.00199139
984 0.0016543
987 0.00185396
990 0.00235683
993 0.00344752
996 0.00685488
999 0.0182539
1002 0.0584042
1005 0.0999349
1008 0.0500907
1011 0.0106235
1014 0.00375945
1017 0.00258102
1020 0.00196234
1023 0.00173784
1026 0.00161761
1029 0.00166493
1032 0.00215919
1035 0.00229388
1038 0.003211
1041 0.00441733
1044 0.0064322
1047 0.0115648
1050 0.029479
1053 0.0984994
1056 0.120077
1059 0.153098
1062 0.255183
1065 0.0684759
1068 0.0181107
1071 0.00827905
1074 0.00541517
1077 0.00389551
1080 0.00320558
1083 0.00287643
1086 0.00284338
1089 0.00258743
1092 0.00273227
1095 0.00339654
1098 0.00517401
1101 0.0102627
1104 0.0316505
1107 0.0710882
1110 0.0752347
1113 0.141886
1116 0.0484035
1119 0.0113664
1122 0.00474223
1125 0.00291039
1128 0.00206796
1131 0.00154838
1134 0.00135048
1137 0.00131984
1140 0.00139344
1143 0.00145128
1146 0.00205619
1149 0.00331925
1152 0.00521329
1155 0.0152369
1158 0.0804909
1161 0.170944
1164 0.0368071
1167 0.00811088
1170 0.00358321
1173 0.00214158
1176 0.00164378
1179 0.00137728
1182 0.00110783
1185 0.0012537
1188 0.0016914
1191 0.00192512
1194 0.00224526
1197 0.00351746
1200 0.00678598
1203 0.0209211
1206 0.0345872
1209 0.0419215
1212 0.0283694
1215 0.00772649
1218 0.00367284
1221 0.00294831
1224 0.0028647
1227 0.00283365
1230 0.00349184
1233 0.00389312
1236 0.00534684
1239 0.00781785
1242 0.012838
1245 0.027299
1248 0.0924097
1251 0.232241
1254 0.32326
1257 0.233658
1260 0.0538324
1263 0.0174089
1266 0.00924459
1269 0.00526236
1272 0.00382472
1275 0.00292885
1278 0.00246363
1281 0.00197982
1284 0.00168945
1287 0.00149464
1290 0.0012538
1293 0.000988282
1296 0.00099598
1299 0.0010706
1302 0.000671119
1305 0.000700933
1308 0.000910488
1311 0.000976313
1314 0.000664323
1317 0.000994012
1320 0.00121837
1323 0.00163009
1326 0.00277814
1329 0.00596291
1332 0.0174147
1335 0.0191887
1338 0.0129469
1341 0.0230451
1344 0.0498708
1347 0.0200175
1350 0.0061821
1353 0.00308297
1356 0.00220771
1359 0.00175377
1362 0.00171672
1365 0.00236189
1368 0.00302155
1371 0.00639975
1374 0.0158639
1377 0.0231946
1380 0.0403597
1383 0.0619259
1386 0.0423517
1389 0.0121616
1392 0.00460338
1395 0.00314248
1398 0.00293883
1401 0.00313709
1404 0.00414091
1407 0.00654877
1410 0.0116597
1413 0.0302911
1416 0.0621097
1419 0.0839863
1422 0.100024
1425 0.145004
1428 0.0673775
1431 0.0176611
1434 0.00815555
1437 0.00593363
1440 0.0042625
1443 0.0037472
1446 0.00343708
1449 0.00409487
1452 0.00571655
1455 0.0136347
1458 0.046204
1461 0.0605216
1464 0.0431129
1467 0.0179298
1470 0.00594906
1473 0.00424596
1476 0.00357924
1479 0.00370829
1482 0.00493305
1485 0.00709617
1488 0.0129681
1491 0.0350783
1494 0.0682728
1497 0.0577349
1500 0.101131
1503 0.117102
1506 0.0431018
1509 0.0132186
1512 0.00681026
1515 0.00458211
1518 0.0040665
1521 0.00377298
1524 0.00446455
1527 0.00908148
1530 0.0215555
1533 0.0237838
1536 0.0279699
1539 0.0467621
1542 0.0224469
1545 0.0067646
1548 0.00348331
1551 0.00254919
1554 0.00230427
1557 0.00236394
1560 0.00326701
1563 0.00562208
1566 0.0113905
1569 0.0403724
1572 0.105934
1575 0.0741541
1578 0.0203091
1581 0.00629439
1584 0.0038565
1587 0.00265319
1590 0.00209455
1593 0.00184047
1596 0.00152228
1599 0.00136372
1602 0.00110902
1605 0.00177131
1608 0.00164754
1611 0.00130698
1614 0.00161539
1617 0.00181179
1620 0.00196177
1623 0.00264406
1626 0.00320754
1629 0.00460224
1632 0.00859739
1635 0.0198
1638 0.0510369
1641 0.0578869
1644 0.0995906
1647 0.0780533
1650 0.0190309
1653 0.00793767
1656 0.00508263
1659 0.00408735
1662 0.00385221
1665 0.00478753
1668 0.00647085
1671 0.0110368
1674 0.016435
1677 0.0178708
1680 0.0175832
1683 0.014461
1686 0.00639711
1689 0.00578255
1692 0.00658881
1695 0.00930381
1698 0.0177605
1701 0.0368901
1704 0.0594467
1707 0.0954653
1710 0.117461
1713 0.130742
1716 0.102275
1719 0.0307707
1722 0.0135098
1725 0.00900552
1728 0.0075642
1731 0.00929861
1734 0.0154044
1737 0.0151034
1740 0.0158342
1743 0.0292096
1746 0.0339854
1749 0.0248887
1752 0.00768337
1755 0.00375728
1758 0.00247853
1761 0.00167985
1764 0.00094077
1767 0.00131781
1770 0.00119843
1773 0.000948955
1776 0.000733066
1779 0.000727917
1782 0.000811058
1785 0.00106617
1788 0.00150549
1791 0.00182507
1794 0.00377971
1797 0.00712999
1800 0.0133287
1803 0.0230137
1806 0.0317016
1809 0.0383195
1812 0.0238054
1815 0.00891804
1818 0.00568411
1821 0.0054329
1824 0.00837704
1827 0.0186219
1830 0.0388932
1833 0.0334065
1836 0.0280138
1839 0.054057
1842 0.0832532
1845 0.0362772
1848 0.0112151
1851 0.00560022
1854 0.00334234
1857 0.00251017
1860 0.00172473
1863 0.00144167
1866 0.00091919
1869 0.00097555
1872 0.000766156
1875 0.000671938
1878 0.000879977
1881 0.000980912
1884 0.00131152
1887 0.00269924
1890 0.00455912
1893 0.0130837
1896 0.0286535
1899 0.0192191
1902 0.016589
1905 0.0137683
1908 0.00464345
1911 0.0028094
1914 0.00232388
1917 0.00336014
1920 0.00664228
1923 0.0116356
1926 0.0159867
1929 0.0151724
1932 0.0179461
1935 0.00914128
1938 0.00438918
1941 0.00390782
1944 0.00524969
1947 0.0101128
1950 0.0218582
1953 0.0347352
1956 0.057553
1959 0.0700825
1962 0.039073
1965 0.0176135
1968 0.00795354
1971 0.00580099
1974 0.00661795
1977 0.0119446
1980 0.0205779
1983 0.0191078
1986 0.025549
1989 0.032146
1992 0.0229777
1995 0.00904116
1998 0.00581003
2001 0.00715975
2004 0.00969226
2007 0.0128841
2010 0.0291464
2013 0.0539668
2016 0.0432837
2019 0.0384397
2022 0.0171884
2025 0.00774433
2028 0.00544142
2031 0.00616114
2034 0.00488285
2037 0.00397928
2040 0.00380662
2043 0.00472066
2046 0.00862977
2049 0.00991229
2052 0.00649985
2055 0.00838654
2058 0.0149286
2061 0.0239137
2064 0.0352316
2067 0.0355833
2070 0.0478392
2073 0.0735311
2076 0.0519521
2079 0.0178572
2082 0.00805436
2085 0.00449702
2088 0.00357914
2091 0.002258
2094 0.00220965
2097 0.00209697
2100 0.00229888
2103 0.00237332
2106 0.00315691
2109 0.00484268
2112 0.0105069
2115 0.0147087
2118 0.0108838
2121 0.00861166
2124 0.0126237
2127 0.0272428
2130 0.0327792
2133 0.0148359
2136 0.00746079
2139 0.00804871
2142 0.0105121
2145 0.0121149
2148 0.0163375
2151 0.0207629
2154 0.0215108
2157 0.0174482
2160 0.00798162
2163 0.00586709
2166 0.00703031
2169 0.0141173
2172 0.0285981
2175 0.0365197
2178 0.0309844
2181 0.0279751
2184 0.0213536
2187 0.00791355
2190 0.00404938
2193 0.0039135
2196 0.00547278
2199 0.00939574
2202 0.0107458
2205 0.0152573
2208 0.00858519
2211 0.00382248
2214 0.00433893
2217 0.00833589
2220 0.0124478
2223 0.0102974
2226 0.00848308
2229 0.0128949
2232 0.0274889
2235 0.0226652
2238 0.00796444
2241 0.00496887
2244 0.00587639
2247 0.00801212
2250 0.0114673
2253 0.0135237
2256 0.0140584
2259 0.013135
2262 0.00794343
2265 0.00617617
2268 0.0105752
2271 0.0167763
2274 0.0133792
2277 0.0124051
2280 0.0217986
2283 0.0312286
2286 0.0225635
2289 0.00788833
2292 0.00368373
2295 0.00187627
2298 0.00152211
2301 0.000971828
2304 0.000931412
2307 0.000690987
2310 0.000700836
2313 0.000476573
2316 0.000886595
2319 0.0015001
2322 0.00236976
2325 0.00571123
2328 0.0136957
2331 0.00909142
2334 0.00349018
2337 0.00216008
2340 0.00279958
2343 0.005084
2346 0.00699597
2349 0.00566975
2352 0.00631595
2355 0.0102742
2358 0.0119817
2361 0.00992959
2364 0.0104225
2367 0.011474
2370 0.0162104
2373 0.0320095
2376 0.0421547
2379 0.0434346
2382 0.0352955
2385 0.0228073
2388 0.0121544
2391 0.00945617
2394 0.00915802
2397 0.0125158
2400 0.0114407
2403 0.0100157
2406 0.0146752
2409 0.0117014
2412 0.00762833
2415 0.00915064
2418 0.0124811
2421 0.0113812
2424 0.0148451
2427 0.0154368
2430 0.015313
2433 0.0116089
2436 0.00831423
2439 0.00784533
2442 0.00819069
2445 0.00789731
2448 0.00999568
2451 0.0116817
2454 0.0142257
2457 0.014444
2460 0.017185
2463 0.0180427
2466 0.0216691
2469 0.0257666
2472 0.0285405
2475 0.0411992
2478 0.0339828
2481 0.0140223
2484 0.00724331
2487 0.00499907
2490 0.00388199
2493 0.00385803
2496 0.00379868
2499 0.00342985
2502 0.00400175
2505 0.00610006
2508 0.0122451
2511 0.0187268
2514 0.018556
2517 0.0255415
2520 0.0278904
2523 0.0228696
2526 0.0107265
2529 0.00657986
2532 0.00529239
2535 0.00537544
2538 0.00729715
2541 0.00776966
2544 0.00740307
2547 0.00643957
2550 0.00618655
2553 0.00593862
2556 0.0046519
2559 0.00440953
2562 0.00549457
2565 0.00945204
2568 0.011361
2571 0.00954988
2574 0.00805254
2577 0.00706722
2580 0.00874953
2583 0.0119552
2586 0.0129904
2589 0.0140567
2592 0.00872135
2595 0.00371828
2598 0.00194723
2601 0.00152233
2604 0.00114293
2607 0.00116645
2610 0.00126894
2613 0.00123503
2616 0.00253501
2619 0.00379429
2622 0.00675872
2625 0.00753606
2628 0.00811365
2631 0.00947096
2634 0.00891545
2637 0.010268
2640 0.0134924
2643 0.0164203
2646 0.0196599
2649 0.0198354
2652 0.0218931
2655 0.0273777
2658 0.0163886
2661 0.00648818
2664 0.00355229
2667 0.00149621
2670 0.00185104
2673 0.00154207
2676 0.00153976
2679 0.00225787
2682 0.00123348
2685 0.000842112
2688 0.000664294
2691 0.00116122
2694 0.00167407
2697 0.0035988
2700 0.00556617
2703 0.00403009
2706 0.00563251
2709 0.00654639
2712 0.00726106
2715 0.00839231
2718 0.0104811
2721 0.0124552
2724 0.0122435
2727 0.0109578
2730 0.0125762
2733 0.0185654
2736 0.0230837
2739 0.0213671
2742 0.0192499
2745 0.0109801
2748 0.00589705
2751 0.00504618
2754 0.00445032
2757 0.00603008
2760 0.00892105
2763 0.00704894
2766 0.00588408
2769 0.00670255
2772 0.00966188
2775 0.0117499
2778 0.0173362
2781 0.0171928
2784 0.0137523
2787 0.00856426
2790 0.00589083
2793 0.00380721
2796 0.00491381
2799 0.00577323
2802 0.00841797
2805 0.00708232
2808 0.00542194
2811 0.0084037
2814 0.0120018
2817 0.0130657
2820 0.0107
2823 0.0077132
2826 0.00313715
2829 0.00188115
2832 0.00060568
2835 0.0016661
2838 0.00181198
2841 0.00262296
2844 0.00305846
2847 0.00328146
2850 0.00342001
2853 0.00593266
2856 0.00506768
2859 0.00462446
2862 0.0093079
2865 0.0120751
2868 0.00675226
2871 0.00401478
2874 0.00419162
2877 0.00466954
2880 0.00493416
2883 0.00849807
2886 0.0111689
2889 0.0121471
2892 0.011118
2895 0.0104305
2898 0.0161179
2901 0.022061
2904 0.0217089
2907 0.0130586
2910 0.00869795
2913 0.00588818
2916 0.00765974
2919 0.00753346
2922 0.0065496
2925 0.00627105
2928 0.00499288
2931 0.00560762
2934 0.00832743
2937 0.00590591
2940 0.00458428
2943 0.00652846
2946 0.00454256
2949 0.00460045
2952 0.0034686
2955 0.00501672
2958 0.00517604
2961 0.00519993
2964 0.00433633
2967 0.00607687
2970 0.00581344
2973 0.0052793
2976 0.00746745
2979 0.00669876
2982 0.00591362
2985 0.00335063
2988 0.00122009
2991 0.000806507
2994 0.00100779
2997 0.000810428
3000 0.00148348
3003 0.0032679
3006 0.0018329
3009 0.00229272
3012 0.00283655
3015 0.00378647
3018 0.00579269
3021 0.00630348
3024 0.00492751
3027 0.00516117
3030 0.00479105
3033 0.00591272
3036 0.00713371
3039 0.00772596
3042 0.00565733
3045 0.00368205
3048 0.00238681
3051 0.00234223
3054 0.00616696
3057 0.00884741
3060 0.00962136
3063 0.00702045
3066 0.00648872
3069 0.00726427
3072 0.00701814
3075 0.0093155
3078 0.00997558
3081 0.00771933
3084 0.00426739
3087 0.00517361
3090 0.00713177
3093 0.0112245
3096 0.00984464
3099 0.00727888
3102 0.00576278
3105 0.00379383
3108 0.00591402
3111 0.00475765
3114 0.00684886
3117 0.00865251
3120 0.00959607
3123 0.0111679
3126 0.0139141
3129 0.0122068
3132 0.0110834
3135 0.0120736
3138 0.00578047
3141 0.00394752
3144 0.00256364
3147 0.00228833
3150 0.00242061
3153 0.00334527
3156 0.00353575
3159 0.00575286
3162 0.00772538
3165 0.00738754
3168 0.00636839
3171 0.00520644
3174 0.00489723
3177 0.0041792
3180 0.00620681
3183 0.00839352
3186 0.00948055
3189 0.00981988
3192 0.0101045
3195 0.010742
3198 0.0123499
3201 0.0143759
3204 0.0143284
3207 0.0119456
3210 0.00720253
3213 0.00301185
3216 0.00227179
3219 0.00327729
3222 0.00417623
3225 0.00439698
3228 0.00374495
3231 0.00357584
3234 0.00138457
3237 0.00110666
3240 0.000923421
3243 0.00307285
3246 0.00139624
3249 0.00261181
3252 0.0051154
3255 0.00398343
3258 0.00426018
3261 0.0052129
3264 0.00605634
3267 0.00554122
3270 0.00579385
3273 0.00655946
3276 0.00709095
3279 0.00636511
3282 0.00428633
3285 0.00185313
3288 0.00308858
3291 0.00231995
3294 0.00144701
3297 0.00321366
3300 0.00344457
3303 0.00097044
3306 0.00348651
3309 0.00389027
3312 0.00467584
3315 0.00319587
3318 0.00358072
3321 0.00342082
3324 0.0048011
3327 0.0046343
3330 0.00529291
3333 0.00626845
3336 0.00411363
3339 0.00618606
3342 0.00845724
3345 0.00835483
3348 0.00821784
3351 0.00849467
3354 0.00681829
3357 0.00344816
3360 0.00495914
3363 0.00387665
3366 0.00470624
3369 0.00618863
3372 0.00306868
3375 0.00557456
3378 0.00215189
3381 0.00630932
3384 0.00661914
3387 0.00360209
3390 0.00356228
3393 0.00382734
3396 0.00446768
3399 0.00560728
3402 0.00568113
3405 0.0061338
3408 0.00481891
3411 0.00267224
3414 0.000508081
3417 0.00393741
3420 0.000607589
3423 0.00149509
3426 0.00345953
3429 0.00323699
3432 0.00518574
3435 0.00294073
3438 0.00593411
3441 0.00404457
3444 0.00822575
3447 0.00805291
3450 0.00432584
3453 0.00511008
3456 0.00312452
3459 0.00586891
3462 0.00864761
3465 0.00585478
3468 0.00666543
3471 0.00584438
3474 0.0045907
3477 0.0142029
3480 0.00628421
3483 0.000812845
3486 0.0147254
3487 0.0197785