File: constrainednmf/example_data/BaTiO3_xrd_ramp/BTO_370K_tth.xy
0.000000000000000000e+00 4.9343e-05
3 0.000182672
6 0.000446196
9 0.00254866
12 0.0123488
15 0.0142185
18 0.0134811
21 0.0128185
24 0.0132726
27 0.0131174
30 0.0107015
33 0.00428777
36 0.00302221
39 0.00302299
42 0.00310379
45 0.00319439
48 0.00313486
51 0.00311277
54 0.00318502
57 0.00321605
60 0.00324023
63 0.0032688
66 0.00331647
69 0.00329891
72 0.00337724
75 0.00341108
78 0.00350902
81 0.00364233
84 0.00374379
87 0.00376666
90 0.00375864
93 0.0036632
96 0.00356053
99 0.00349974
102 0.00343113
105 0.0034781
108 0.00337326
111 0.00337518
114 0.00342698
117 0.00334348
120 0.00331256
123 0.00323883
126 0.0032775
129 0.00320568
132 0.00321268
135 0.0030984
138 0.00311464
141 0.00307257
144 0.00303624
147 0.00297063
150 0.00295704
153 0.00292552
156 0.0028783
159 0.00282333
162 0.00273878
165 0.00276824
168 0.00271444
171 0.0025888
174 0.00256726
177 0.00260132
180 0.00251935
183 0.00248063
186 0.00239612
189 0.00233232
192 0.00227621
195 0.00226485
198 0.00229744
201 0.00220254
204 0.00218072
207 0.00215786
210 0.00211562
213 0.0021389
216 0.00208297
219 0.00207155
222 0.00205666
225 0.00199205
228 0.00203708
231 0.00207346
234 0.00201591
237 0.00203701
240 0.00199855
243 0.00201979
246 0.00207809
249 0.00207755
252 0.00204769
255 0.0020658
258 0.00213688
261 0.00210866
264 0.00218934
267 0.00216522
270 0.00230996
273 0.00218185
276 0.00236987
279 0.00244531
282 0.00256783
285 0.00259705
288 0.00260462
291 0.00254577
294 0.00252374
297 0.00232295
300 0.00218099
303 0.00200878
306 0.00200513
309 0.0020381
312 0.0019966
315 0.00189375
318 0.00202422
321 0.00222517
324 0.00300165
327 0.00650724
330 0.0353371
333 0.107096
336 0.0639813
339 0.00839526
342 0.00280193
345 0.00175543
348 0.00147109
351 0.00120315
354 0.00137186
357 0.00247352
360 0.00431372
363 0.00316767
366 0.00170911
369 0.000850888
372 0.000572257
375 0.000608717
378 0.000621569
381 0.00077957
384 0.000712982
387 0.000770138
390 0.000683264
393 0.000629522
396 0.000754191
399 0.000639909
402 0.000720749
405 0.000714142
408 0.000737435
411 0.00107922
414 0.00126806
417 0.00112003
420 0.000959223
423 0.00118557
426 0.00133158
429 0.0011318
432 0.00106802
435 0.00125085
438 0.00137116
441 0.00174959
444 0.00221005
447 0.00265261
450 0.00310005
453 0.00385545
456 0.00489956
459 0.00663025
462 0.0102587
465 0.0212433
468 0.0871469
471 0.706962
474 0.771655
477 0.119021
480 0.022516
483 0.00994241
486 0.00627444
489 0.0044645
492 0.00326773
495 0.00236433
498 0.0018209
501 0.00166443
504 0.00161687
507 0.0022789
510 0.00246237
513 0.00203526
516 0.00165531
519 0.000994367
522 0.000320771
525 0.000295915
528 0.000171458
531 0.000215595
534 0.0003468
537 7.82446e-05
540 0.000143052
543 6.06211e-05
546 0.000269783
549 0.000269867
552 0.000248105
555 0.000473464
558 0.000627136
561 0.00108713
564 0.00146076
567 0.00234871
570 0.00384847
573 0.0103196
576 0.067836
579 0.388541
582 0.109148
585 0.0129948
588 0.00473332
591 0.00271261
594 0.00193496
597 0.00121494
600 0.00104188
603 0.000736196
606 0.000538079
609 0.000591181
612 0.000609187
615 0.000641634
618 0.000607084
621 0.0011994
624 0.00202104
627 0.00181964
630 0.0013432
633 0.00142901
636 0.00154999
639 0.00155587
642 0.00166722
645 0.00185781
648 0.00235189
651 0.00343211
654 0.00557196
657 0.00918144
660 0.0197588
663 0.0738016
666 0.191233
669 0.259105
672 0.315161
675 0.0522659
678 0.0141021
681 0.00667957
684 0.00436208
687 0.00360016
690 0.00364418
693 0.00271368
696 0.00180348
699 0.00124556
702 0.00094148
705 0.000812845
708 0.000757373
711 0.000659008
714 0.000390628
717 0.000574475
720 0.00065151
723 0.00077721
726 0.000798186
729 0.00109569
732 0.00153183
735 0.00212105
738 0.00376147
741 0.0101418
744 0.0452248
747 0.0910831
750 0.125432
753 0.0317047
756 0.00628953
759 0.00241785
762 0.00147385
765 0.000790611
768 0.000742003
771 0.000969795
774 0.000696952
777 0.000695374
780 0.000667053
783 0.00116662
786 0.00144084
789 0.00160395
792 0.00163745
795 0.00224772
798 0.00301752
801 0.00377145
804 0.00540865
807 0.008334
810 0.0150717
813 0.0406208
816 0.188452
819 0.485848
822 0.487499
825 0.0791043
828 0.0198663
831 0.00924752
834 0.00586181
837 0.00427888
840 0.00326013
843 0.00230768
846 0.00177407
849 0.00147203
852 0.00106435
855 0.00110873
858 0.0010838
861 0.000848133
864 0.00058717
867 0.000531798
870 0.000372661
873 0.000381379
876 0.00051944
879 0.000379692
882 0.000705627
885 0.000565003
888 0.000479677
891 0.00044503
894 0.000350652
897 0.000478203
900 0.000208375
903 0.000169648
906 0.000382851
909 0.00028954
912 0.000252642
915 0.000392463
918 0.00063163
921 0.000968755
924 0.00123786
927 0.00159485
930 0.00247525
933 0.00404261
936 0.00740283
939 0.0167434
942 0.0636264
945 0.289079
948 0.279204
951 0.134941
954 0.0254422
957 0.00882207
960 0.00463911
963 0.00301535
966 0.00191426
969 0.00160448
972 0.00147443
975 0.00176471
978 0.00156036
981 0.0010672
984 0.00127777
987 0.00125971
990 0.00164908
993 0.00292747
996 0.0064643
999 0.018008
1002 0.0581628
1005 0.0995428
1008 0.0504778
1011 0.0101436
1014 0.00336857
1017 0.00192871
1020 0.00146494
1023 0.0011678
1026 0.00101258
1029 0.00131064
1032 0.00163042
1035 0.00209114
1038 0.00261721
1041 0.00374763
1044 0.00596523
1047 0.01127
1050 0.0295352
1053 0.0993155
1056 0.118111
1059 0.149645
1062 0.256158
1065 0.0700531
1068 0.0180825
1071 0.00815153
1074 0.00464073
1077 0.00331816
1080 0.00281119
1083 0.00223256
1086 0.00226039
1089 0.00199191
1092 0.00221178
1095 0.00304316
1098 0.00484554
1101 0.00995308
1104 0.0314833
1107 0.0707815
1110 0.073804
1113 0.141237
1116 0.0494852
1119 0.0107956
1122 0.00468712
1125 0.00204689
1128 0.0014891
1131 0.000945279
1134 0.000702054
1137 0.000933024
1140 0.000911137
1143 0.00111586
1146 0.0015316
1149 0.0025827
1152 0.00482754
1155 0.014968
1158 0.0796761
1161 0.171831
1164 0.0372293
1167 0.00752621
1170 0.00303897
1173 0.00175394
1176 0.00122881
1179 0.000856927
1182 0.000740491
1185 0.000610541
1188 0.00108407
1191 0.00120673
1194 0.00163175
1197 0.00289523
1200 0.00617464
1203 0.0203235
1206 0.0339938
1209 0.0416581
1212 0.0283025
1215 0.00725051
1218 0.00333863
1221 0.00258678
1224 0.0024362
1227 0.00269466
1230 0.00311553
1233 0.00370499
1236 0.00501595
1239 0.00772452
1242 0.0127579
1245 0.0268548
1248 0.0926958
1251 0.231476
1254 0.320668
1257 0.237284
1260 0.0551932
1263 0.0171718
1266 0.00860515
1269 0.00528204
1272 0.00372303
1275 0.00224571
1278 0.00187085
1281 0.00136361
1284 0.00106992
1287 0.00110569
1290 0.000605991
1293 0.000373755
1296 0.00048722
1299 0.000528429
1302 0.000252895
1305 0.000575835
1308 0.000493337
1311 0.000527448
1314 0.000248563
1317 0.000453326
1320 0.000884327
1323 0.00144814
1326 0.00228424
1329 0.00608177
1332 0.0173701
1335 0.0181653
1338 0.0128308
1341 0.0218
1344 0.0493799
1347 0.0201752
1350 0.00556602
1353 0.00282853
1356 0.00178558
1359 0.00116713
1362 0.00127357
1365 0.00161503
1368 0.00263426
1371 0.00564782
1374 0.0157325
1377 0.0225826
1380 0.0398203
1383 0.0615843
1386 0.0425716
1389 0.0119928
1392 0.00430693
1395 0.00300661
1398 0.00277923
1401 0.00270187
1404 0.00413309
1407 0.00612758
1410 0.011196
1413 0.0307134
1416 0.0622115
1419 0.0832546
1422 0.098425
1425 0.14428
1428 0.0693553
1431 0.0178143
1434 0.00796923
1437 0.00517439
1440 0.00332697
1443 0.00261443
1446 0.00289499
1449 0.00312154
1452 0.00511842
1455 0.0125918
1458 0.0457331
1461 0.0599968
1464 0.0425396
1467 0.0178024
1470 0.00568652
1473 0.0035502
1476 0.00285311
1479 0.00324594
1482 0.00428842
1485 0.00618417
1488 0.0121999
1491 0.0348592
1494 0.0676033
1497 0.0563412
1500 0.0992029
1503 0.11752
1506 0.0441178
1509 0.0128688
1512 0.00636466
1515 0.00412553
1518 0.0035361
1521 0.00314912
1524 0.00395627
1527 0.0081036
1530 0.0215295
1533 0.0234251
1536 0.027005
1539 0.0460842
1542 0.0224029
1545 0.0058774
1548 0.00282307
1551 0.00189001
1554 0.00149759
1557 0.00190275
1560 0.00216458
1563 0.0047974
1566 0.0108525
1569 0.0394073
1572 0.105022
1575 0.0744158
1578 0.02023
1581 0.00587531
1584 0.00301357
1587 0.00184904
1590 0.00106403
1593 0.000939622
1596 0.000717902
1599 0.000857641
1602 0.00052056
1605 0.000367742
1608 0.000428128
1611 0.000676845
1614 0.000683125
1617 0.000972952
1620 0.00123756
1623 0.0017
1626 0.00213386
1629 0.00381879
1632 0.00734935
1635 0.0194371
1638 0.0500178
1641 0.0566342
1644 0.0976088
1647 0.0792731
1650 0.0184407
1653 0.00731305
1656 0.00424037
1659 0.0030073
1662 0.00342301
1665 0.00359016
1668 0.0059623
1671 0.0104755
1674 0.0152769
1677 0.0171008
1680 0.0167497
1683 0.0132563
1686 0.00592595
1689 0.00507777
1692 0.00580605
1695 0.00873528
1698 0.0173897
1701 0.0362346
1704 0.058673
1707 0.094907
1710 0.116233
1713 0.128963
1716 0.104403
1719 0.031218
1722 0.0129594
1725 0.0079524
1728 0.00714728
1731 0.00844551
1734 0.0148762
1737 0.0140829
1740 0.0150708
1743 0.0281068
1746 0.0331553
1749 0.0248581
1752 0.00740257
1755 0.00279158
1758 0.00157705
1761 0.0010621
1764 0.000703888
1767 5.03398e-05
1770 0.000273863
1773 0.00032372
1776 0.000395868
1779 0.000113929
1782 0.000456751
1785 0.000149252
1788 0.000750159
1791 0.00147735
1794 0.00303926
1797 0.00653617
1800 0.0123972
1803 0.0219348
1806 0.0311008
1809 0.0375377
1812 0.0232665
1815 0.00831672
1818 0.00447758
1821 0.00520368
1824 0.0078189
1827 0.0183522
1830 0.0385505
1833 0.0331726
1836 0.0272953
1839 0.0516381
1842 0.0827763
1845 0.0369175
1848 0.0110365
1851 0.00492511
1854 0.00258692
1857 0.00129612
1860 0.000849031
1863 0.000558081
1866 0.00014122
1869 0.000277335
1872 0.000284138
1875 0.000119378
1878 0.000519602
1881 0.00119135
1884 0.00053708
1887 0.00182338
1890 0.00405564
1893 0.0126951
1896 0.028542
1899 0.0183524
1902 0.0159859
1905 0.0136322
1908 0.00456908
1911 0.00208535
1914 0.00158165
1917 0.00282949
1920 0.00576878
1923 0.0108766
1926 0.0153504
1929 0.0146726
1932 0.0178956
1935 0.00915399
1938 0.00397092
1941 0.00330903
1944 0.00495264
1947 0.00896756
1950 0.0210235
1953 0.0337819
1956 0.05658
1959 0.0699425
1962 0.0388525
1965 0.0176368
1968 0.00725716
1971 0.00543368
1974 0.0061632
1977 0.0114979
1980 0.0204949
1983 0.0180978
1986 0.0251152
1989 0.0314104
1992 0.0233575
1995 0.00902288
1998 0.00577587
2001 0.00735158
2004 0.00845387
2007 0.0118853
2010 0.0283202
2013 0.0532443
2016 0.0424575
2019 0.0387189
2022 0.0173318
2025 0.00697659
2028 0.00508798
2031 0.00606682
2034 0.00439916
2037 0.00401022
2040 0.00317643
2043 0.00425537
2046 0.00814269
2049 0.00936843
2052 0.00632302
2055 0.00809202
2058 0.0149179
2061 0.0237643
2064 0.0353676
2067 0.0348613
2070 0.0466549
2073 0.0727202
2076 0.0538158
2079 0.018651
2082 0.00776178
2085 0.00474049
2088 0.00307641
2091 0.00244244
2094 0.001974
2097 0.00211432
2100 0.00145323
2103 0.00221541
2106 0.00248919
2109 0.00498463
2112 0.0104345
2115 0.0144194
2118 0.0105791
2121 0.00856268
2124 0.0115309
2127 0.0260846
2130 0.0328741
2133 0.0148164
2136 0.00758137
2139 0.00874727
2142 0.0104132
2145 0.0119921
2148 0.0165895
2151 0.020563
2154 0.0210569
2157 0.0176724
2160 0.00816537
2163 0.00572117
2166 0.00704565
2169 0.0141519
2172 0.0289153
2175 0.0365371
2178 0.0311096
2181 0.0272287
2184 0.0219167
2187 0.0078758
2190 0.00412646
2193 0.00354926
2196 0.00604289
2199 0.00916015
2202 0.0102236
2205 0.014867
2208 0.00792914
2211 0.00370948
2214 0.00387172
2217 0.00841546
2220 0.0126565
2223 0.0100718
2226 0.00788057
2229 0.0129542
2232 0.0273717
2235 0.0235924
2238 0.00801361
2241 0.0048299
2244 0.00580901
2247 0.008078
2250 0.0113025
2253 0.0131543
2256 0.0139105
2259 0.0128892
2262 0.00773561
2265 0.00662947
2268 0.0108401
2271 0.0165387
2274 0.012862
2277 0.0117001
2280 0.0210259
2283 0.0303891
2286 0.0231455
2289 0.00836497
2292 0.00334024
2295 0.00207308
2298 0.00106809
2301 0.000644489
2304 0.000594251
2307 0.000000000000000000e+00
2310 0.000531964
2313 0.000569648
2316 0.0003815
2319 0.000809422
2322 0.00188097
2325 0.00534295
2328 0.0127186
2331 0.00890745
2334 0.00308161
2337 0.00228003
2340 0.0023926
2343 0.00539035
2346 0.0058542
2349 0.00499437
2352 0.00573133
2355 0.0102908
2358 0.0125563
2361 0.00952076
2364 0.0103418
2367 0.011162
2370 0.0162335
2373 0.0315795
2376 0.0418501
2379 0.0433136
2382 0.0352976
2385 0.0228948
2388 0.0121566
2391 0.00919654
2394 0.00850723
2397 0.012111
2400 0.0112333
2403 0.00951152
2406 0.0138821
2409 0.0118962
2412 0.00699166
2415 0.00916138
2418 0.0119574
2421 0.0110057
2424 0.0145255
2427 0.0148926
2430 0.0146309
2433 0.0116604
2436 0.00768896
2439 0.00716723
2442 0.00774618
2445 0.00731611
2448 0.00912018
2451 0.0110675
2454 0.0136292
2457 0.0146906
2460 0.016039
2463 0.0174144
2466 0.0206542
2469 0.025099
2472 0.0277565
2475 0.0404076
2478 0.0348325
2481 0.0143828
2484 0.00688491
2487 0.00416722
2490 0.00361086
2493 0.00297165
2496 0.00300476
2499 0.00310139
2502 0.00332199
2505 0.00527877
2508 0.0116299
2511 0.0181919
2514 0.017803
2517 0.0243772
2520 0.0281097
2523 0.0232501
2526 0.0109782
2529 0.00605637
2532 0.0041569
2535 0.00479865
2538 0.00640307
2541 0.00718575
2544 0.00673774
2547 0.00540416
2550 0.00610758
2553 0.00576278
2556 0.00375117
2559 0.00371634
2562 0.00514123
2565 0.00877268
2568 0.0104881
2571 0.00936602
2574 0.0077371
2577 0.00646339
2580 0.00802472
2583 0.010401
2586 0.0121185
2589 0.0135785
2592 0.00855625
2595 0.00314032
2598 0.00148615
2601 0.000819872
2604 0.00122599
2607 0.000545924
2610 0.000350184
2613 0.00112617
2616 0.00156999
2619 0.00336696
2622 0.0062898
2625 0.00672502
2628 0.00760748
2631 0.00934147
2634 0.00817236
2637 0.00934235
2640 0.0130798
2643 0.0166128
2646 0.0195603
2649 0.0185689
2652 0.0211801
2655 0.0265113
2658 0.0159833
2661 0.00601224
2664 0.00237218
2667 0.00177657
2670 0.00136936
2673 0.00101684
2676 0.00119611
2679 0.0013406
2682 0.000496248
2685 0.000492069
2688 0.00122579
2691 0.000860661
2694 0.00141164
2697 0.00282887
2700 0.00461351
2703 0.00383471
2706 0.00381855
2709 0.00606865
2712 0.00700996
2715 0.00718841
2718 0.00986839
2721 0.0123134
2724 0.0118502
2727 0.0107315
2730 0.0118646
2733 0.0176212
2736 0.0219215
2739 0.0205968
2742 0.0195542
2745 0.0100412
2748 0.00652683
2751 0.0042835
2754 0.00344845
2757 0.00540521
2760 0.00808915
2763 0.00662476
2766 0.00588971
2769 0.00680447
2772 0.00869504
2775 0.0108161
2778 0.0169579
2781 0.0169673
2784 0.0128658
2787 0.00796442
2790 0.00573295
2793 0.0035331
2796 0.003557
2799 0.00533575
2802 0.00750009
2805 0.00662334
2808 0.00494974
2811 0.00748199
2814 0.0118468
2817 0.0116029
2820 0.0100208
2823 0.00779368
2826 0.00277531
2829 0.000438004
2832 0.000400689
2835 0.000564517
2838 0.00113591
2841 0.00230018
2844 0.00300596
2847 0.00269045
2850 0.00249522
2853 0.00577901
2856 0.0049817
2859 0.00524041
2862 0.0100542
2865 0.0121764
2868 0.00685973
2871 0.00403686
2874 0.00456063
2877 0.0037661
2880 0.00506391
2883 0.00831721
2886 0.0117959
2889 0.0123591
2892 0.0109345
2895 0.0113842
2898 0.0162653
2901 0.0218779
2904 0.0216693
2907 0.0147078
2910 0.00903506
2913 0.00677293
2916 0.00744836
2919 0.00729751
2922 0.00465383
2925 0.00552671
2928 0.00478213
2931 0.00646195
2934 0.00796067
2937 0.0065793
2940 0.0047894
2943 0.0066205
2946 0.00459954
2949 0.0032688
2952 0.00389033
2955 0.00569054
2958 0.00524709
2961 0.00526773
2964 0.00545651
2967 0.00525925
2970 0.00613826
2973 0.00591434
2976 0.00762041
2979 0.0063836
2982 0.00651235
2985 0.00375948
2988 0.00145786
2991 0.000111749
2994 0.000227602
2997 0.00105358
3000 0.0013989
3003 0.00170055
3006 0.00311609
3009 0.00231152
3012 0.00392258
3015 0.00389581
3018 0.00566222
3021 0.00735303
3024 0.00655172
3027 0.00533032
3030 0.004616
3033 0.00639881
3036 0.0083838
3039 0.00722741
3042 0.00618394
3045 0.00328427
3048 0.00333185
3051 0.00453006
3054 0.0062254
3057 0.00871515
3060 0.0104509
3063 0.00800812
3066 0.00581866
3069 0.00665107
3072 0.00831979
3075 0.0093828
3078 0.00973098
3081 0.00899185
3084 0.0059661
3087 0.00573229
3090 0.00666459
3093 0.011849
3096 0.0107368
3099 0.00818988
3102 0.00535209
3105 0.00394399
3108 0.00630612
3111 0.00642857
3114 0.00659133
3117 0.00864196
3120 0.0102283
3123 0.0115886
3126 0.0122772
3129 0.0116958
3132 0.0126638
3135 0.0127966
3138 0.00742558
3141 0.00543867
3144 0.0030457
3147 0.00285045
3150 0.00160245
3153 0.00299159
3156 0.00393975
3159 0.0066369
3162 0.0088735
3165 0.00633947
3168 0.00700681
3171 0.00528181
3174 0.006115
3177 0.00532797
3180 0.00570382
3183 0.00751169
3186 0.00895648
3189 0.0112439
3192 0.00995188
3195 0.00984175
3198 0.0115988
3201 0.0161745
3204 0.0142587
3207 0.0106214
3210 0.00709036
3213 0.00415639
3216 0.00323471
3219 0.00297836
3222 0.00456719
3225 0.00501005
3228 0.00364728
3231 0.000633638
3234 0.000903889
3237 0.00104604
3240 0.00140532
3243 0.00301053
3246 0.00262633
3249 0.0010608
3252 0.00118288
3255 0.00245304
3258 0.00294738
3261 0.00332743
3264 0.00423049
3267 0.00570757
3270 0.00751834
3273 0.00534328
3276 0.00837538
3279 0.0076134
3282 0.00229592
3285 0.0026482
3288 0.00144256
3291 0.0011469
3294 0.000502153
3297 0.00176299
3300 0.00370637
3303 0.00192861
3306 0.00314889
3309 0.00414476
3312 0.0032843
3315 0.00130643
3318 0.00110288
3321 0.00261297
3324 0.00451659
3327 0.0051606
3330 0.00473357
3333 0.00499834
3336 0.00532954
3339 0.00302297
3342 0.00834817
3345 0.00731819
3348 0.00938359
3351 0.0067077
3354 0.00641517
3357 0.00546882
3360 0.00515276
3363 0.00325953
3366 0.00570679
3369 0.0027272
3372 0.00300898
3375 0.00320437
3378 0.00473571
3381 0.0056195
3384 0.00297793
3387 0.00614495
3390 0.004402
3393 0.00512305
3396 0.00257894
3399 0.00456067
3402 0.00764453
3405 0.00634521
3408 0.00221321
3411 0.00342773
3414 0.00380077
3417 0.00231402
3420 0.00214784
3423 0.00258011
3426 0.00031994
3429 0.00569211
3432 0.00157772
3435 0.00513643
3438 0.00372042
3441 0.00657701
3444 0.00962155
3447 0.00643469
3450 0.00635109
3453 0.00732869
3456 0.00671069
3459 0.0070463
3462 0.0105094
3465 0.00652468
3468 0.00856871
3471 0.0109198
3474 0.00851403
3477 0.0101629
3480 0.0132855
3483 0.0173712
3486 0.00397652
3487 0.0195531