File: constrainednmf/example_data/BaTiO3_xrd_ramp/BTO_265K_tth.xy
0.000000000000000000e+00 0.00108325
3 0.00122918
6 0.00147995
9 0.00324677
12 0.0112191
15 0.012801
18 0.0122103
21 0.0116686
24 0.0120187
27 0.0120527
30 0.010103
33 0.00482756
36 0.00377758
39 0.00382559
42 0.00394238
45 0.0039866
48 0.00394721
51 0.00403201
54 0.00403409
57 0.00408517
60 0.00416338
63 0.00418603
66 0.00417489
69 0.00420444
72 0.00429207
75 0.00438647
78 0.00440826
81 0.00456791
84 0.00455231
87 0.00463393
90 0.00455694
93 0.00447405
96 0.00448258
99 0.00440819
102 0.00437182
105 0.00432687
108 0.00434491
111 0.00434105
114 0.00426953
117 0.00426475
120 0.00418873
123 0.00419024
126 0.00418475
129 0.00415556
132 0.00410086
135 0.0040569
138 0.0039819
141 0.00399034
144 0.00393723
147 0.00397024
150 0.00388617
153 0.00380972
156 0.00370443
159 0.00375289
162 0.00369772
165 0.00365759
168 0.00357764
171 0.00359094
174 0.00352824
177 0.00344309
180 0.00343387
183 0.00341669
186 0.00333539
189 0.00325863
192 0.00328416
195 0.00323795
198 0.00316918
201 0.00314706
204 0.00306828
207 0.00314739
210 0.00305976
213 0.00302976
216 0.00299047
219 0.00297972
222 0.00296313
225 0.0029201
228 0.00296758
231 0.00289673
234 0.00291927
237 0.00285484
240 0.00291625
243 0.00292895
246 0.00292918
249 0.00287547
252 0.00295476
255 0.00291338
258 0.00296951
261 0.0029238
264 0.00293885
267 0.00295008
270 0.00301249
273 0.00306466
276 0.00307613
279 0.00316104
282 0.00320451
285 0.00340216
288 0.0034238
291 0.00329406
294 0.00337084
297 0.00316544
300 0.00306635
303 0.00295362
306 0.00276989
309 0.00286648
312 0.00286698
315 0.00296106
318 0.00297909
321 0.00315428
324 0.00380884
327 0.00654952
330 0.0289681
333 0.108231
336 0.0655004
339 0.0104495
342 0.0040791
345 0.00282288
348 0.00245565
351 0.00222707
354 0.00228665
357 0.00308156
360 0.00513872
363 0.0043025
366 0.00288902
369 0.00193212
372 0.0017823
375 0.00168085
378 0.00164528
381 0.00170888
384 0.00169654
387 0.00176153
390 0.00163804
393 0.00167432
396 0.0017859
399 0.00179129
402 0.00174257
405 0.00168849
408 0.00178398
411 0.00208721
414 0.00230481
417 0.00237161
420 0.00212572
423 0.00215369
426 0.00243653
429 0.00215498
432 0.00215951
435 0.00218224
438 0.00245714
441 0.00256013
444 0.00300432
447 0.00333567
450 0.00394853
453 0.00458722
456 0.00551316
459 0.00706959
462 0.010405
465 0.0203215
468 0.0796232
471 0.581306
474 0.8367
477 0.127991
480 0.0240293
483 0.0109925
486 0.00724218
489 0.00534475
492 0.00421625
495 0.00341586
498 0.00289285
501 0.00250192
504 0.00266956
507 0.00287394
510 0.00334781
513 0.00325373
516 0.00266153
519 0.0018854
522 0.00126599
525 0.00141861
528 0.00121562
531 0.00112095
534 0.00121983
537 0.00117806
540 0.0013069
543 0.0013224
546 0.00126518
549 0.00106391
552 0.00144481
555 0.00139307
558 0.00172686
561 0.00200835
564 0.00241549
567 0.002994
570 0.00455086
573 0.0100949
576 0.0577255
579 0.350425
582 0.135046
585 0.0157705
588 0.00577347
591 0.00368805
594 0.00288454
597 0.00224048
600 0.00196512
603 0.00166382
606 0.00155608
609 0.00165652
612 0.00157074
615 0.00149481
618 0.00161449
621 0.00191098
624 0.00285086
627 0.00269575
630 0.00240314
633 0.00241535
636 0.00242811
639 0.00243187
642 0.00238075
645 0.00257913
648 0.00305489
651 0.00405336
654 0.00576239
657 0.00866905
660 0.0167656
663 0.0491541
666 0.19565
669 0.290141
672 0.246336
675 0.0831177
678 0.0179631
681 0.00792997
684 0.00513073
687 0.00410719
690 0.00409105
693 0.00387545
696 0.00294356
699 0.00218147
702 0.00164209
705 0.00164506
708 0.00162574
711 0.00138428
714 0.00142939
717 0.00146098
720 0.00176517
723 0.00167843
726 0.00158399
729 0.00187593
732 0.00207405
735 0.00271249
738 0.00407542
741 0.00905952
744 0.0355067
747 0.104963
750 0.106611
753 0.0435056
756 0.00850782
759 0.00355187
762 0.00234954
765 0.00201674
768 0.00176356
771 0.00158253
774 0.00178154
777 0.00166189
780 0.00177955
783 0.00198998
786 0.00227359
789 0.00227381
792 0.00269298
795 0.00283179
798 0.00358571
801 0.00440115
804 0.00586151
807 0.00840622
810 0.0138698
813 0.0335202
816 0.148478
819 0.48764
822 0.474995
825 0.113736
828 0.0241051
831 0.0107225
834 0.00675183
837 0.0050289
840 0.00378698
843 0.00325761
846 0.00260893
849 0.00207188
852 0.0018788
855 0.00173325
858 0.00190545
861 0.00188338
864 0.00171397
867 0.00145477
870 0.00119088
873 0.00122926
876 0.0013026
879 0.00105666
882 0.00166631
885 0.00150158
888 0.00143733
891 0.00111328
894 0.00114413
897 0.0011263
900 0.00106988
903 0.00114768
906 0.00122021
909 0.00131555
912 0.00121114
915 0.00125568
918 0.0011585
921 0.00165511
924 0.00207024
927 0.00253847
930 0.00303969
933 0.00428604
936 0.00739522
939 0.0164944
942 0.0651639
945 0.194166
948 0.337101
951 0.150994
954 0.0297467
957 0.0103265
960 0.00549555
963 0.00377923
966 0.00290451
969 0.00240531
972 0.00230865
975 0.00221086
978 0.00233838
981 0.00242386
984 0.00205444
987 0.00195748
990 0.00225651
993 0.00337018
996 0.0056366
999 0.0153859
1002 0.0531408
1005 0.0991093
1008 0.0544697
1011 0.0163347
1014 0.00516868
1017 0.00278261
1020 0.00224317
1023 0.00192153
1026 0.00170173
1029 0.00185975
1032 0.00207268
1035 0.00257328
1038 0.00308849
1041 0.00406168
1044 0.00594785
1047 0.00983854
1050 0.0212713
1053 0.0621919
1056 0.162289
1059 0.183393
1062 0.153349
1065 0.122828
1068 0.0292783
1071 0.010692
1074 0.00606878
1077 0.00414747
1080 0.00374115
1083 0.0032395
1086 0.00276697
1089 0.0029426
1092 0.00314621
1095 0.00347015
1098 0.00470249
1101 0.00844916
1104 0.0212526
1107 0.0670486
1110 0.106649
1113 0.090328
1116 0.0753561
1119 0.01892
1122 0.00610675
1125 0.00370744
1128 0.00243313
1131 0.00200043
1134 0.00186396
1137 0.00155324
1140 0.00174964
1143 0.00202212
1146 0.00236485
1149 0.00310662
1152 0.00507462
1155 0.0130861
1158 0.0650993
1161 0.154922
1164 0.0655899
1167 0.0114797
1170 0.00462282
1173 0.00271229
1176 0.00216373
1179 0.0016908
1182 0.00153112
1185 0.0017367
1188 0.00176303
1191 0.00173142
1194 0.00242741
1197 0.00346514
1200 0.00649847
1203 0.0175678
1206 0.0326487
1209 0.0408997
1212 0.0329224
1215 0.0108438
1218 0.00457752
1221 0.00348602
1224 0.0029699
1227 0.00310536
1230 0.00357663
1233 0.00415586
1236 0.00522839
1239 0.00731194
1242 0.011108
1245 0.0237969
1248 0.0759347
1251 0.202077
1254 0.309539
1257 0.264807
1260 0.087456
1263 0.0225928
1266 0.0102179
1269 0.00631752
1272 0.0046326
1275 0.00322665
1278 0.00263724
1281 0.00228097
1284 0.00177274
1287 0.00146266
1290 0.00142254
1293 0.00130118
1296 0.00125397
1299 0.00120912
1302 0.00127599
1305 0.00110093
1308 0.00134719
1311 0.00142404
1314 0.00120882
1317 0.00139745
1320 0.00139779
1323 0.00189174
1326 0.00250771
1329 0.00449993
1332 0.00963183
1335 0.0219332
1338 0.0332616
1341 0.0249478
1344 0.0201504
1347 0.02928
1350 0.0145613
1353 0.00500671
1356 0.00281672
1359 0.00245358
1362 0.00224157
1365 0.00271263
1368 0.00290145
1371 0.00510114
1374 0.0100419
1377 0.0254186
1380 0.0493409
1383 0.0554756
1386 0.0369981
1389 0.022743
1392 0.00813411
1395 0.00427062
1398 0.00336709
1401 0.00359873
1404 0.00413726
1407 0.00591221
1410 0.00936968
1413 0.0200951
1416 0.0530804
1419 0.0985025
1422 0.116545
1425 0.105673
1428 0.0868283
1431 0.0365962
1434 0.0115538
1437 0.00647824
1440 0.00448607
1443 0.00400071
1446 0.00374533
1449 0.00407624
1452 0.00623096
1455 0.0151959
1458 0.0311752
1461 0.056435
1464 0.0597172
1467 0.0225772
1470 0.00754476
1473 0.00437034
1476 0.00344533
1479 0.00374661
1482 0.00440481
1485 0.00626629
1488 0.010485
1491 0.0236299
1494 0.0559601
1497 0.0918406
1500 0.0914312
1503 0.0838422
1506 0.0751709
1509 0.0234659
1512 0.00928736
1515 0.00546192
1518 0.00406596
1521 0.00371894
1524 0.00460753
1527 0.00688227
1530 0.0156379
1533 0.0304175
1536 0.0364659
1539 0.031233
1542 0.0307248
1545 0.0127468
1548 0.00470573
1551 0.00316243
1554 0.00268507
1557 0.00271332
1560 0.00347748
1563 0.00496125
1566 0.0110425
1569 0.0356281
1572 0.0797585
1575 0.0957153
1578 0.0363673
1581 0.00939451
1584 0.00452544
1587 0.00332298
1590 0.002309
1593 0.00199974
1596 0.00170273
1599 0.00182615
1602 0.00149364
1605 0.0015368
1608 0.0016635
1611 0.00145532
1614 0.00168045
1617 0.00171483
1620 0.00206115
1623 0.00260715
1626 0.00291994
1629 0.00412805
1632 0.00679746
1635 0.0147224
1638 0.0398395
1641 0.0730978
1644 0.0832544
1647 0.0800209
1650 0.0417945
1653 0.0121917
1656 0.00627131
1659 0.00453214
1662 0.00384687
1665 0.0041568
1668 0.00611113
1671 0.0109716
1674 0.0147934
1677 0.0188243
1680 0.0187919
1683 0.0144216
1686 0.00891603
1689 0.00619101
1692 0.00620657
1695 0.00848377
1698 0.0130149
1701 0.0258959
1704 0.0608641
1707 0.0973392
1710 0.127456
1713 0.127132
1716 0.0974113
1719 0.057597
1722 0.0246493
1725 0.0109223
1728 0.00813233
1731 0.00770805
1734 0.0102655
1737 0.0176033
1740 0.0276772
1743 0.0316128
1746 0.0256142
1749 0.0185129
1752 0.0184028
1755 0.0073509
1758 0.00314222
1761 0.00193413
1764 0.00192434
1767 0.00169643
1770 0.00140052
1773 0.00114829
1776 0.00130396
1779 0.000992224
1782 0.00131491
1785 0.00132757
1788 0.00165288
1791 0.00239675
1794 0.00308904
1797 0.00594616
1800 0.0122071
1803 0.0242129
1806 0.0339025
1809 0.0367569
1812 0.0260393
1815 0.0152452
1818 0.00745294
1821 0.00587263
1824 0.00720969
1827 0.0124395
1830 0.0258189
1833 0.04706
1836 0.0601888
1839 0.0500098
1842 0.0429506
1845 0.0540165
1848 0.0299779
1851 0.00970533
1854 0.00471365
1857 0.00307369
1860 0.00218336
1863 0.00167862
1866 0.00137324
1869 0.00121894
1872 0.00114048
1875 0.00102662
1878 0.00152795
1881 0.00097258
1884 0.00168745
1887 0.00278696
1890 0.00636983
1893 0.0109064
1896 0.0157998
1899 0.024967
1902 0.0285576
1905 0.0159475
1908 0.00685055
1911 0.00339507
1914 0.00302146
1917 0.00364088
1920 0.00661354
1923 0.0117225
1926 0.0153926
1929 0.0180681
1932 0.0175254
1935 0.0130784
1938 0.00681694
1941 0.0045726
1944 0.00528866
1947 0.00877821
1950 0.0181985
1953 0.0337183
1956 0.0566789
1959 0.0670629
1962 0.0523413
1965 0.0298499
1968 0.0127904
1971 0.00704971
1974 0.00668495
1977 0.01041
1980 0.0179963
1983 0.0241852
1986 0.0290453
1989 0.0267293
1992 0.0269724
1995 0.0168929
1998 0.00790946
2001 0.00666896
2004 0.00850313
2007 0.0156317
2010 0.027652
2013 0.0403923
2016 0.0572605
2019 0.0447962
2022 0.0205056
2025 0.0130972
2028 0.00807533
2031 0.00579389
2034 0.00594576
2037 0.00745362
2040 0.00764165
2043 0.0062993
2046 0.00528548
2049 0.00624226
2052 0.0083013
2055 0.00899546
2058 0.0104646
2061 0.0194311
2064 0.0375322
2067 0.0537775
2070 0.0588828
2073 0.0542075
2076 0.0509367
2079 0.0350405
2082 0.019542
2085 0.008123
2088 0.00469137
2091 0.00345297
2094 0.00306621
2097 0.00268225
2100 0.00267438
2103 0.0027284
2106 0.00311591
2109 0.00426406
2112 0.00642186
2115 0.011171
2118 0.01807
2121 0.0226617
2124 0.0206098
2127 0.015465
2130 0.0157832
2133 0.0227071
2136 0.018102
2139 0.00976745
2142 0.0109959
2145 0.0154121
2148 0.0203354
2151 0.023246
2154 0.0212175
2157 0.0160369
2160 0.0133758
2163 0.0097918
2166 0.00961766
2169 0.0159988
2172 0.0208033
2175 0.0297733
2178 0.0401842
2181 0.0408022
2184 0.0284774
2187 0.0122717
2190 0.00618306
2193 0.00458171
2196 0.00566661
2199 0.00995379
2202 0.0118982
2205 0.0134824
2208 0.011824
2211 0.00676122
2214 0.00432732
2217 0.00571963
2220 0.009221
2223 0.01594
2226 0.0191903
2229 0.0180907
2232 0.0148287
2235 0.0165633
2238 0.019734
2241 0.0104058
2244 0.00733176
2247 0.00919092
2250 0.0112648
2253 0.0143405
2256 0.0160824
2259 0.014232
2262 0.0107414
2265 0.00771625
2268 0.00850926
2271 0.0134163
2274 0.0196201
2277 0.0248357
2280 0.0231659
2283 0.019204
2286 0.0226307
2289 0.0204107
2292 0.00830576
2295 0.0035874
2298 0.00274359
2301 0.00154481
2304 0.00142806
2307 0.00110047
2310 0.000937719
2313 0.000911932
2316 0.000854528
2319 0.00123287
2322 0.00207963
2325 0.00564106
2328 0.00967684
2331 0.0115444
2334 0.00760871
2337 0.00341917
2340 0.00298787
2343 0.00452118
2346 0.00671665
2349 0.00845919
2352 0.00919277
2355 0.00862811
2358 0.00863038
2361 0.0107537
2364 0.0105512
2367 0.0133605
2370 0.0209852
2373 0.0320686
2376 0.0415999
2379 0.0500984
2382 0.0423019
2385 0.0239751
2388 0.0174443
2391 0.016004
2394 0.0132567
2397 0.0128273
2400 0.0134302
2403 0.0138082
2406 0.0126997
2409 0.00992807
2412 0.0102739
2415 0.0111129
2418 0.0107533
2421 0.0131371
2424 0.0168049
2427 0.016126
2430 0.0162683
2433 0.0153963
2436 0.0103719
2439 0.0092003
2442 0.009667
2445 0.0101418
2448 0.0108587
2451 0.0103287
2454 0.0113193
2457 0.0127517
2460 0.015277
2463 0.0219832
2466 0.0301191
2469 0.0341009
2472 0.0366263
2475 0.0328462
2478 0.0283364
2481 0.0242653
2484 0.0179668
2487 0.00820141
2490 0.0049665
2493 0.00398049
2496 0.00383258
2499 0.0033804
2502 0.00408642
2505 0.00552665
2508 0.0104978
2511 0.0160017
2514 0.0216357
2517 0.0277823
2520 0.028046
2523 0.0273891
2526 0.0195327
2529 0.00976929
2532 0.00680263
2535 0.00731458
2538 0.00792498
2541 0.00822476
2544 0.00734422
2547 0.00567479
2550 0.00598448
2553 0.00670282
2556 0.00774707
2559 0.0085199
2562 0.00762228
2565 0.00665137
2568 0.00677698
2571 0.00933134
2574 0.0112182
2577 0.0111258
2580 0.0128057
2583 0.0138994
2586 0.0142482
2589 0.0113269
2592 0.00966291
2595 0.00864414
2598 0.00462111
2601 0.00193845
2604 0.0020836
2607 0.00164403
2610 0.00117221
2613 0.0019875
2616 0.00245299
2619 0.00419941
2622 0.00605849
2625 0.00701719
2628 0.00912506
2631 0.0102695
2634 0.0104429
2637 0.0103662
2640 0.0137464
2643 0.0176624
2646 0.0217216
2649 0.0265338
2652 0.0263102
2655 0.0250999
2658 0.0222916
2661 0.0146641
2664 0.00680645
2667 0.00280111
2670 0.0023749
2673 0.00151599
2676 0.00138295
2679 0.00136006
2682 0.00208273
2685 0.00240449
2688 0.00169172
2691 0.00262172
2694 0.00192878
2697 0.00276098
2700 0.00297217
2703 0.00536276
2706 0.00749345
2709 0.00790339
2712 0.00812516
2715 0.00956006
2718 0.0100754
2721 0.0105906
2724 0.0129796
2727 0.0156411
2730 0.0195562
2733 0.0235479
2736 0.02394
2739 0.0213225
2742 0.0179094
2745 0.0161548
2748 0.013053
2751 0.00895309
2754 0.00685846
2757 0.00546008
2760 0.00528367
2763 0.00734317
2766 0.00878895
2769 0.0108481
2772 0.0132993
2775 0.0147048
2778 0.0165594
2781 0.0147234
2784 0.012539
2787 0.0111463
2790 0.012793
2793 0.0102411
2796 0.00795786
2799 0.00578536
2802 0.00516683
2805 0.00694224
2808 0.00766186
2811 0.00979503
2814 0.0096123
2817 0.0137889
2820 0.0149348
2823 0.0125204
2826 0.00693188
2829 0.00295937
2832 0.00196737
2835 0.00163241
2838 0.000933002
2841 0.0016587
2844 0.00282012
2847 0.00484123
2850 0.00629642
2853 0.00763848
2856 0.00768895
2859 0.00806236
2862 0.00804341
2865 0.00818585
2868 0.00930946
2871 0.00913015
2874 0.00626504
2877 0.00569985
2880 0.00553195
2883 0.00773476
2886 0.0106351
2889 0.0136679
2892 0.0175859
2895 0.0211214
2898 0.020736
2901 0.0182248
2904 0.0187142
2907 0.0199353
2910 0.0166127
2913 0.0118088
2916 0.0100677
2919 0.00803124
2922 0.00780222
2925 0.00743605
2928 0.0065458
2931 0.00433219
2934 0.00574968
2937 0.00803855
2940 0.00936282
2943 0.00860704
2946 0.00680515
2949 0.0061784
2952 0.00629952
2955 0.00587857
2958 0.00709687
2961 0.00764773
2964 0.00662387
2967 0.00707759
2970 0.00652552
2973 0.00727733
2976 0.00806409
2979 0.00788378
2982 0.00871226
2985 0.0067345
2988 0.00451454
2991 0.00138478
2994 0.00197889
2997 0.000853537
3000 0.000917539
3003 0.0029828
3006 0.00355797
3009 0.00398286
3012 0.0043086
3015 0.0041138
3018 0.004166
3021 0.00531768
3024 0.00783773
3027 0.00825388
3030 0.00721799
3033 0.00626688
3036 0.00667611
3039 0.00765382
3042 0.00707348
3045 0.00887585
3048 0.00729663
3051 0.00656316
3054 0.0065531
3057 0.0054477
3060 0.00722981
3063 0.0101712
3066 0.0103523
3069 0.00947927
3072 0.00864179
3075 0.00875675
3078 0.00791467
3081 0.00816267
3084 0.00973274
3087 0.0105571
3090 0.00975446
3093 0.00817189
3096 0.00842551
3099 0.0105281
3102 0.00981573
3105 0.00692194
3108 0.00527906
3111 0.00660918
3114 0.00801241
3117 0.0102651
3120 0.0109052
3123 0.0142542
3126 0.0155366
3129 0.0154427
3132 0.0154195
3135 0.0120157
3138 0.00880367
3141 0.00883666
3144 0.00627995
3147 0.00298594
3150 0.00203674
3153 0.00218774
3156 0.00407006
3159 0.0052926
3162 0.00667904
3165 0.00857934
3168 0.0100654
3171 0.00869937
3174 0.00798405
3177 0.00747177
3180 0.00863337
3183 0.00900711
3186 0.0101404
3189 0.00994387
3192 0.0140233
3195 0.0151531
3198 0.0151357
3201 0.0163685
3204 0.0145455
3207 0.0149371
3210 0.0150204
3213 0.0104297
3216 0.00738213
3219 0.00495826
3222 0.00376548
3225 0.00368384
3228 0.00252501
3231 0.00223247
3234 0.00271347
3237 0.00210574
3240 0.00316026
3243 0.00292052
3246 0.00202672
3249 0.00262126
3252 0.00262165
3255 0.00494186
3258 0.00538142
3261 0.00721212
3264 0.00815488
3267 0.00885321
3270 0.00916933
3273 0.00968527
3276 0.0103559
3279 0.00869554
3282 0.00648719
3285 0.00677644
3288 0.00381299
3291 0.00396137
3294 0.00272286
3297 0.00297164
3300 0.00410731
3303 0.00355395
3306 0.0048067
3309 0.00357226
3312 0.00274121
3315 0.0037885
3318 0.00525381
3321 0.00298792
3324 0.00509385
3327 0.00550742
3330 0.00798303
3333 0.00669089
3336 0.00879899
3339 0.0103202
3342 0.00990342
3345 0.0105588
3348 0.0099818
3351 0.0111378
3354 0.0089307
3357 0.00899589
3360 0.00765032
3363 0.00720373
3366 0.00525
3369 0.00508835
3372 0.00614026
3375 0.00493417
3378 0.00615612
3381 0.00680609
3384 0.00623584
3387 0.00803999
3390 0.0068682
3393 0.00844976
3396 0.00765203
3399 0.00861083
3402 0.00818773
3405 0.00432659
3408 0.00565642
3411 0.00587426
3414 0.00614389
3417 0.00280584
3420 0.00357809
3423 0.0019013
3426 0.000903213
3429 0.000718812
3432 0.0037359
3435 0.00337368
3438 0.00391521
3441 0.00775204
3444 0.00499649
3447 0.00547671
3450 0.00661348
3453 0.00879824
3456 0.00866753
3459 0.0056507
3462 0.00785961
3465 0.0107492
3468 0.00892487
3471 0.00710929
3474 0.00700179
3477 0.00648917
3480 0.00953936
3483 0.0124933
3486 0.00699204
3487 0.0016804