File: constrainednmf/example_data/BaTiO3_xrd_ramp/BTO_305K_tth.xy
0.000000000000000000e+00 0.000275905
3 0.000343903
6 0.000538249
9 0.00252246
12 0.0116804
15 0.0135501
18 0.0128337
21 0.0120983
24 0.0125218
27 0.0124087
30 0.0100266
33 0.00390802
36 0.00268803
39 0.00268305
42 0.00276244
45 0.00281941
48 0.00279584
51 0.00285229
54 0.00282852
57 0.00292037
60 0.00295329
63 0.00301294
66 0.00304412
69 0.0030889
72 0.003146
75 0.00324753
78 0.003363
81 0.0034733
84 0.00358402
87 0.00359893
90 0.00355434
93 0.00349113
96 0.00348492
99 0.0034319
102 0.00339983
105 0.00337599
108 0.00336274
111 0.00339782
114 0.00340662
117 0.00334981
120 0.00336606
123 0.00334064
126 0.00330498
129 0.00329196
132 0.00334975
135 0.00329363
138 0.00330504
141 0.00323596
144 0.00330043
147 0.00323589
150 0.00320685
153 0.00315643
156 0.00312368
159 0.00315778
162 0.00312739
165 0.00308712
168 0.00306525
171 0.00302163
174 0.00303705
177 0.0029973
180 0.00293459
183 0.00281357
186 0.00282512
189 0.00275187
192 0.00281938
195 0.00272073
198 0.00271294
201 0.00270424
204 0.00271865
207 0.00266499
210 0.002667
213 0.00262129
216 0.00261601
219 0.00263557
222 0.0025363
225 0.00254319
228 0.00260516
231 0.00257399
234 0.00259448
237 0.00255161
240 0.00251282
243 0.00258294
246 0.00260381
249 0.00260527
252 0.00255493
255 0.00265083
258 0.00261294
261 0.00262187
264 0.00259489
267 0.0027014
270 0.00266638
273 0.00270434
276 0.00283147
279 0.00291423
282 0.00302708
285 0.00312358
288 0.00300713
291 0.00299667
294 0.00305107
297 0.00283038
300 0.00269317
303 0.00255323
306 0.00245101
309 0.00239308
312 0.00248781
315 0.00243676
318 0.00253127
321 0.00278322
324 0.0034236
327 0.00692272
330 0.0358943
333 0.102468
336 0.0715225
339 0.00977546
342 0.00333865
345 0.00225285
348 0.00180744
351 0.00172248
354 0.00163919
357 0.00263681
360 0.00458947
363 0.00379265
366 0.00213935
369 0.00136005
372 0.00114191
375 0.00104323
378 0.000884894
381 0.00101843
384 0.00102214
387 0.00111692
390 0.00100159
393 0.000905372
396 0.001051
399 0.000938726
402 0.00108954
405 0.00107918
408 0.00110556
411 0.00138032
414 0.00150286
417 0.00159693
420 0.00135309
423 0.00152326
426 0.001689
429 0.00147369
432 0.00146837
435 0.00159931
438 0.00180598
441 0.00197945
444 0.00232141
447 0.00273011
450 0.00322713
453 0.00396227
456 0.00501181
459 0.00668785
462 0.0101911
465 0.0209345
468 0.083281
471 0.661939
474 0.823971
477 0.142888
480 0.0246987
483 0.0106504
486 0.00668849
489 0.00486705
492 0.003529
495 0.00268846
498 0.00226765
501 0.00185075
504 0.00185846
507 0.00225789
510 0.00261129
513 0.00238626
516 0.00193586
519 0.00122592
522 0.000856507
525 0.000634455
528 0.000372277
531 0.000369916
534 0.000406424
537 0.000294714
540 0.000425566
543 0.000353464
546 0.000342449
549 0.000415582
552 0.000482906
555 0.000566551
558 0.00087078
561 0.0012258
564 0.00176446
567 0.00251394
570 0.00395325
573 0.00999452
576 0.0605663
579 0.376012
582 0.133036
585 0.0152406
588 0.00495083
591 0.00290534
594 0.00200588
597 0.00164904
600 0.001058
603 0.00087781
606 0.000680264
609 0.000672384
612 0.000715961
615 0.000873453
618 0.000905252
621 0.00119675
624 0.0021597
627 0.00213369
630 0.00176948
633 0.00166884
636 0.00180653
639 0.00159203
642 0.00155066
645 0.00206972
648 0.00260715
651 0.00366805
654 0.00544228
657 0.00871429
660 0.0192788
663 0.0766447
666 0.190531
669 0.235327
672 0.335038
675 0.0729596
678 0.0165359
681 0.00752758
684 0.00450574
687 0.00366115
690 0.00369743
693 0.0032253
696 0.0020269
699 0.0014246
702 0.00113709
705 0.00108933
708 0.00112972
711 0.000690127
714 0.000710709
717 0.000814997
720 0.000946871
723 0.00109697
726 0.00123423
729 0.00127743
732 0.00151715
735 0.00235613
738 0.00378239
741 0.0100784
744 0.0458329
747 0.0884732
750 0.122027
753 0.0436933
756 0.00792114
759 0.00309411
762 0.00179581
765 0.00137769
768 0.0010813
771 0.00116505
774 0.00103462
777 0.00108091
780 0.00119779
783 0.00131659
786 0.00150931
789 0.00185729
792 0.00204939
795 0.00267293
798 0.00324212
801 0.00399185
804 0.00550018
807 0.00836171
810 0.0147962
813 0.0383193
816 0.182351
819 0.450062
822 0.544074
825 0.107312
828 0.0231472
831 0.0104457
834 0.00642555
837 0.0045394
840 0.00344394
843 0.00266703
846 0.00206008
849 0.00163485
852 0.00130198
855 0.00132
858 0.00131091
861 0.00125676
864 0.000889794
867 0.000715737
870 0.00060878
873 0.000675241
876 0.000387605
879 0.000628124
882 0.000817716
885 0.000812675
888 0.000788493
891 0.000589395
894 0.000615862
897 0.000362007
900 0.000432175
903 0.000285118
906 0.000326462
909 0.000367738
912 0.00063522
915 0.000627467
918 0.00088749
921 0.00121058
924 0.00117683
927 0.00176098
930 0.00261481
933 0.00406734
936 0.00727309
939 0.0162154
942 0.0621577
945 0.259836
948 0.292838
951 0.166603
954 0.0335032
957 0.0100762
960 0.00504948
963 0.00309731
966 0.00233563
969 0.0015796
972 0.00156187
975 0.0015913
978 0.0020487
981 0.0016239
984 0.00142633
987 0.00114211
990 0.00192022
993 0.00292052
996 0.006709
999 0.0172045
1002 0.0533391
1005 0.0984051
1008 0.0598059
1011 0.0149848
1014 0.00402653
1017 0.00227716
1020 0.00117398
1023 0.00109336
1026 0.00103603
1029 0.00114366
1032 0.00146209
1035 0.00170182
1038 0.00263544
1041 0.00339064
1044 0.00551415
1047 0.0108673
1050 0.0296101
1053 0.101057
1056 0.122657
1059 0.135292
1062 0.23499
1065 0.112801
1068 0.0243187
1071 0.00924476
1074 0.00511983
1077 0.00341994
1080 0.002751
1083 0.00246728
1086 0.00227952
1089 0.00220227
1092 0.00235774
1095 0.00302653
1098 0.00463002
1101 0.00950887
1104 0.0330276
1107 0.0703015
1110 0.0730242
1113 0.120621
1116 0.0768741
1119 0.0150498
1122 0.00531064
1125 0.00270379
1128 0.00111658
1131 0.00115013
1134 0.0010076
1137 0.000844881
1140 0.000977934
1143 0.00131307
1146 0.00139265
1149 0.00238747
1152 0.00447427
1155 0.0129924
1158 0.0664997
1161 0.175969
1164 0.0547153
1167 0.00940387
1170 0.00337095
1173 0.00195388
1176 0.000947984
1179 0.000898549
1182 0.000525959
1185 0.000747231
1188 0.000886471
1191 0.000974269
1194 0.00159728
1197 0.00267291
1200 0.00597314
1203 0.0205872
1206 0.0318457
1209 0.0402185
1212 0.0325252
1215 0.0109663
1218 0.00361733
1221 0.00266691
1224 0.00207473
1227 0.00251209
1230 0.00281773
1233 0.00339699
1236 0.0046725
1239 0.00699923
1242 0.011555
1245 0.0257151
1248 0.0914656
1251 0.220245
1254 0.295669
1257 0.275918
1260 0.0855456
1263 0.0209685
1266 0.0095716
1269 0.00551905
1272 0.00375969
1275 0.00280763
1278 0.00191347
1281 0.00148489
1284 0.00104725
1287 0.000689407
1290 0.000918312
1293 0.000286813
1296 0.000556687
1299 0.000486465
1302 0.000106681
1305 0.000467939
1308 0.000476132
1311 0.000543327
1314 0.000596972
1317 0.000582469
1320 0.000666224
1323 0.00148393
1326 0.00224905
1329 0.00656365
1332 0.0177074
1335 0.017613
1338 0.0166178
1341 0.0192694
1344 0.0347874
1347 0.0349082
1350 0.00954488
1353 0.00343625
1356 0.00231381
1359 0.00161315
1362 0.00172273
1365 0.00168177
1368 0.00298655
1371 0.006792
1374 0.0159139
1377 0.0222751
1380 0.0400462
1383 0.0561299
1386 0.0469415
1389 0.020586
1392 0.00620442
1395 0.00339604
1398 0.00299946
1401 0.00338408
1404 0.00375778
1407 0.00609431
1410 0.0116908
1413 0.033179
1416 0.060182
1419 0.0840978
1422 0.0990182
1425 0.116741
1428 0.107987
1431 0.0283953
1434 0.0102212
1437 0.0061596
1440 0.00426592
1443 0.00333978
1446 0.00316665
1449 0.00368578
1452 0.00549239
1455 0.0132064
1458 0.0410801
1461 0.0622445
1464 0.0445333
1467 0.0265807
1470 0.00753626
1473 0.00374638
1476 0.00339038
1479 0.00346498
1482 0.00435285
1485 0.00629289
1488 0.0127682
1491 0.037318
1494 0.065859
1497 0.0621258
1500 0.0813813
1503 0.114129
1506 0.0730007
1509 0.0199261
1512 0.00820827
1515 0.00506552
1518 0.00422192
1521 0.00370332
1524 0.00454101
1527 0.0085385
1530 0.0227764
1533 0.0242207
1536 0.0260849
1539 0.0400922
1542 0.0342871
1545 0.0101498
1548 0.00425204
1551 0.00259583
1554 0.002308
1557 0.00226498
1560 0.00321467
1563 0.00505274
1566 0.0111035
1569 0.0357142
1572 0.097438
1575 0.0879525
1578 0.0330224
1581 0.00832238
1584 0.00427071
1587 0.00271264
1590 0.00218104
1593 0.00160586
1596 0.00151517
1599 0.00151465
1602 0.00136046
1605 0.00131779
1608 0.00131684
1611 0.00115224
1614 0.0012683
1617 0.00121527
1620 0.00180262
1623 0.00214497
1626 0.0032316
1629 0.00415666
1632 0.00743386
1635 0.0196201
1638 0.050743
1641 0.0583639
1644 0.0785088
1647 0.102911
1650 0.0324905
1653 0.0100359
1656 0.00562517
1659 0.00411039
1662 0.00414488
1665 0.00468139
1668 0.00649566
1671 0.0111726
1674 0.0156631
1677 0.017727
1680 0.0165352
1683 0.0165758
1686 0.00949028
1689 0.00618115
1692 0.00662814
1695 0.00936069
1698 0.0196202
1701 0.0367444
1704 0.0600749
1707 0.0944131
1710 0.114632
1713 0.119126
1716 0.120209
1719 0.0576559
1722 0.0187323
1725 0.0103215
1728 0.00810047
1731 0.0106596
1734 0.0154057
1737 0.014732
1740 0.0174
1743 0.0277063
1746 0.0279762
1749 0.0299744
1752 0.0151385
1755 0.00504558
1758 0.00255122
1761 0.00158395
1764 0.00116285
1767 0.00106677
1770 0.000827253
1773 0.000635757
1776 0.000683788
1779 0.000563991
1782 0.000505395
1785 0.000756215
1788 0.000916863
1791 0.00164037
1794 0.00295768
1797 0.00775822
1800 0.0124384
1803 0.0229394
1806 0.0301408
1809 0.0364503
1812 0.0299261
1815 0.0140144
1818 0.00625811
1821 0.00546591
1824 0.00815188
1827 0.0207579
1830 0.0383913
1833 0.0352953
1836 0.0335416
1839 0.0412274
1842 0.0694602
1845 0.0625877
1848 0.0203855
1851 0.00714623
1854 0.00367949
1857 0.00223944
1860 0.00111159
1863 0.000674863
1866 0.000824263
1869 0.000565517
1872 0.000187124
1875 0.000298821
1878 0.000267349
1881 0.000554921
1884 0.0010264
1887 0.00165748
1890 0.00399602
1893 0.0114849
1896 0.0255669
1899 0.0222954
1902 0.016895
1905 0.0159872
1908 0.00764755
1911 0.00262185
1914 0.00214723
1917 0.00330767
1920 0.00683757
1923 0.0106472
1926 0.0151501
1929 0.0145748
1932 0.0165893
1935 0.0138006
1938 0.0054063
1941 0.00410131
1944 0.00480406
1947 0.00990228
1950 0.0214487
1953 0.0323616
1956 0.0517869
1959 0.0708275
1962 0.0496741
1965 0.0263813
1968 0.0104174
1971 0.00600447
1974 0.00613597
1977 0.0126044
1980 0.0203277
1983 0.0191679
1986 0.0224287
1989 0.0294031
1992 0.0273342
1995 0.0154141
1998 0.00672977
2001 0.00714053
2004 0.00831633
2007 0.0118917
2010 0.0261372
2013 0.0504641
2016 0.0466124
2019 0.0388432
2022 0.0256459
2025 0.011212
2028 0.00659171
2031 0.00566505
2034 0.00473215
2037 0.00416038
2040 0.00379844
2043 0.00395559
2046 0.00533535
2049 0.00899833
2052 0.00844835
2055 0.00903843
2058 0.0149388
2061 0.0227454
2064 0.0368098
2067 0.0388594
2070 0.0433947
2073 0.0614109
2076 0.0630021
2079 0.0348424
2082 0.0120797
2085 0.00545512
2088 0.00295664
2091 0.00201661
2094 0.00159566
2097 0.00140458
2100 0.00158238
2103 0.00140605
2106 0.00195737
2109 0.00463829
2112 0.0110332
2115 0.0128567
2118 0.0111336
2121 0.0109482
2124 0.0121829
2127 0.0167163
2130 0.0283128
2133 0.0259131
2136 0.0118792
2139 0.00964416
2142 0.00994887
2145 0.0120314
2148 0.0161302
2151 0.0207308
2154 0.0193717
2157 0.0186042
2160 0.0127663
2163 0.00621261
2166 0.0067576
2169 0.0141855
2172 0.0269334
2175 0.0335782
2178 0.0357056
2181 0.0286111
2184 0.0262844
2187 0.0134648
2190 0.00486099
2193 0.00338914
2196 0.00571356
2199 0.00868271
2202 0.00879044
2205 0.0134222
2208 0.0122645
2211 0.00491878
2214 0.00437438
2217 0.00877837
2220 0.012012
2223 0.010244
2226 0.0104035
2229 0.0112754
2232 0.0174154
2235 0.0275872
2238 0.0164326
2241 0.0068217
2244 0.00634105
2247 0.00781723
2250 0.0109968
2253 0.012767
2256 0.0139669
2259 0.0133858
2262 0.0103079
2265 0.00767197
2268 0.0119244
2271 0.0161077
2274 0.0143766
2277 0.0136751
2280 0.0167719
2283 0.0259377
2286 0.0278824
2289 0.0165833
2292 0.00557699
2295 0.00204756
2298 0.00103411
2301 0.000842174
2304 0.000259184
2307 0.000270562
2310 0.000301942
2313 0.000202419
2316 0.000336378
2319 0.000506573
2322 0.00162825
2325 0.00442017
2328 0.0108402
2331 0.0117118
2334 0.00508405
2337 0.00279696
2340 0.00288843
2343 0.00502899
2346 0.00572104
2349 0.00540816
2352 0.00607443
2355 0.00826817
2358 0.0120139
2361 0.0131845
2364 0.0109098
2367 0.0111577
2370 0.0174918
2373 0.0312345
2376 0.0414313
2379 0.0454674
2382 0.0391392
2385 0.0289373
2388 0.0203943
2391 0.0109577
2394 0.00983006
2397 0.0121378
2400 0.0122143
2403 0.01036
2406 0.0105287
2409 0.0138933
2412 0.0114266
2415 0.0106029
2418 0.0118488
2421 0.0117777
2424 0.0138102
2427 0.0162152
2430 0.0147438
2433 0.0153932
2436 0.0115408
2439 0.00900491
2442 0.00850311
2445 0.00802856
2448 0.00927895
2451 0.0106834
2454 0.0131877
2457 0.0191187
2460 0.0178726
2463 0.0191961
2466 0.0229261
2469 0.027586
2472 0.0286002
2475 0.0327585
2478 0.0386065
2481 0.0280959
2484 0.011717
2487 0.00586976
2490 0.00419687
2493 0.00381941
2496 0.00340689
2499 0.00290718
2502 0.00387954
2505 0.00566202
2508 0.0126138
2511 0.0187215
2514 0.0179845
2517 0.0231036
2520 0.0286049
2523 0.026687
2526 0.0195264
2529 0.00860035
2532 0.00544622
2535 0.00541852
2538 0.00686487
2541 0.00767015
2544 0.00751881
2547 0.00720617
2550 0.00715248
2553 0.00587306
2556 0.00465113
2559 0.00496691
2562 0.00497297
2565 0.00723936
2568 0.0105875
2571 0.0126809
2574 0.0104887
2577 0.00819133
2580 0.00974574
2583 0.0120237
2586 0.0117411
2589 0.0130055
2592 0.0123558
2595 0.00729517
2598 0.00205472
2601 0.00111952
2604 0.00158813
2607 0.0011249
2610 0.000592902
2613 0.00136945
2616 0.00214089
2619 0.00380226
2622 0.00647421
2625 0.00687538
2628 0.00802295
2631 0.00963267
2634 0.0106096
2637 0.0124512
2640 0.0141653
2643 0.0176393
2646 0.0200879
2649 0.0217318
2652 0.0208061
2655 0.0246598
2658 0.0252266
2661 0.0132043
2664 0.00492611
2667 0.00220744
2670 0.00162579
2673 0.00110406
2676 0.00145174
2679 0.00135565
2682 0.000987886
2685 0.000791088
2688 0.000617754
2691 0.0014563
2694 0.00144462
2697 0.00222323
2700 0.00359256
2703 0.00546162
2706 0.00558109
2709 0.00543494
2712 0.00747793
2715 0.0087704
2718 0.0101477
2721 0.0125113
2724 0.0146054
2727 0.012588
2730 0.0132466
2733 0.0172923
2736 0.0222242
2739 0.0225412
2742 0.0193926
2745 0.0181992
2748 0.0100952
2751 0.00577019
2754 0.00411881
2757 0.00458877
2760 0.00812529
2763 0.00777748
2766 0.00632527
2769 0.00720639
2772 0.00978532
2775 0.0110127
2778 0.0149767
2781 0.0173088
2784 0.0144514
2787 0.0134908
2790 0.00849042
2793 0.0052558
2796 0.00442839
2799 0.00553922
2802 0.00611792
2805 0.00746442
2808 0.0078891
2811 0.00753577
2814 0.0110948
2817 0.0130268
2820 0.0119179
2823 0.0097368
2826 0.00531092
2829 0.00219624
2832 0.000833636
2835 0.000322821
2838 0.000321461
2841 0.00227947
2844 0.00286845
2847 0.00319984
2850 0.00343672
2853 0.00553204
2856 0.00518472
2859 0.00577781
2862 0.00610518
2865 0.00986114
2868 0.0104094
2871 0.00680035
2874 0.00477416
2877 0.00483845
2880 0.00577144
2883 0.00827201
2886 0.011097
2889 0.0140526
2892 0.0129998
2895 0.0117636
2898 0.0140506
2901 0.0192823
2904 0.0226163
2907 0.0211202
2910 0.0136572
2913 0.00794318
2916 0.0077566
2919 0.00799393
2922 0.00615596
2925 0.0053988
2928 0.00577856
2931 0.00567917
2934 0.0079348
2937 0.0069102
2940 0.00561752
2943 0.00572311
2946 0.00650157
2949 0.00517884
2952 0.00403438
2955 0.00527377
2958 0.00563624
2961 0.0068071
2964 0.00620729
2967 0.00755119
2970 0.00546877
2973 0.00563489
2976 0.00652306
2979 0.00672864
2982 0.00595891
2985 0.00511911
2988 0.00299722
2991 0.000472057
2994 0.00121277
2997 0.000808741
3000 0.00119933
3003 0.00247169
3006 0.00233313
3009 0.00221477
3012 0.0020045
3015 0.00342044
3018 0.00625347
3021 0.00718866
3024 0.00660993
3027 0.00727362
3030 0.00670004
3033 0.00598917
3036 0.00726766
3039 0.00714681
3042 0.00788568
3045 0.0056533
3048 0.00649727
3051 0.00369783
3054 0.00434348
3057 0.00588861
3060 0.0104429
3063 0.0106322
3066 0.0088236
3069 0.0067401
3072 0.00913004
3075 0.00802688
3078 0.0106963
3081 0.00927824
3084 0.00735405
3087 0.00595291
3090 0.00793083
3093 0.00890354
3096 0.0135848
3099 0.0111504
3102 0.00949827
3105 0.00653247
3108 0.00780588
3111 0.00718698
3114 0.00680247
3117 0.00911386
3120 0.0113595
3123 0.0130963
3126 0.0141527
3129 0.0133984
3132 0.0121035
3135 0.012267
3138 0.0126881
3141 0.00810338
3144 0.0049531
3147 0.00357411
3150 0.00274265
3153 0.00301081
3156 0.00432954
3159 0.00580526
3162 0.0089194
3165 0.00851021
3168 0.00836236
3171 0.00942489
3174 0.00706889
3177 0.007194
3180 0.0074046
3183 0.00840295
3186 0.00957353
3189 0.0126071
3192 0.0133072
3195 0.0117218
3198 0.01259
3201 0.0156009
3204 0.0174012
3207 0.0149013
3210 0.0115555
3213 0.00826514
3216 0.00504881
3219 0.00354281
3222 0.00377994
3225 0.00411679
3228 0.00483674
3231 0.00436615
3234 0.00253733
3237 0.000000000000000000e+00
3240 0.00204941
3243 0.00336312
3246 0.00122828
3249 0.00418788
3252 0.00368913
3255 0.00471406
3258 0.00627074
3261 0.0060827
3264 0.00464656
3267 0.0050577
3270 0.00704532
3273 0.00741049
3276 0.00781243
3279 0.00784845
3282 0.00733146
3285 0.00627707
3288 0.00164742
3291 8.58569e-05
3294 0.000705851
3297 0.000917687
3300 0.001948
3303 0.00216763
3306 0.00218126
3309 0.003317
3312 0.00344542
3315 0.00329492
3318 0.00171626
3321 0.00253289
3324 0.00584181
3327 0.00497986
3330 0.00558324
3333 0.00479796
3336 0.00409333
3339 0.00499607
3342 0.00844091
3345 0.0101548
3348 0.00943508
3351 0.0093555
3354 0.00746537
3357 0.00727218
3360 0.00389628
3363 0.00414713
3366 0.00414848
3369 0.00491515
3372 0.00394294
3375 0.0024243
3378 0.00390321
3381 0.00428763
3384 0.00709011
3387 0.00683696
3390 0.00659148
3393 0.00578088
3396 0.00716049
3399 0.0068328
3402 0.00697737
3405 0.00676053
3408 0.00294612
3411 0.00619256
3414 0.000180062
3417 0.00453484
3420 0.00562908
3423 0.00633579
3426 0.00962033
3429 0.00725359
3432 0.00716376
3435 0.00704392
3438 0.0107836
3441 0.00756373
3444 0.00965498
3447 0.0123758
3450 0.0129453
3453 0.0132803
3456 0.012049
3459 0.0125234
3462 0.014499
3465 0.00771279
3468 0.0124135
3471 0.0101322
3474 0.0112588
3477 0.0150691
3480 0.0277059
3483 0.0198946
3486 0.0126971
3487 0.0002372