File: constrainednmf/example_data/BaTiO3_xrd_ramp/BTO_400K_tth.xy
0.000000000000000000e+00 0.000249796
3 0.000405157
6 0.000674478
9 0.00270739
12 0.0124626
15 0.0143019
18 0.0136048
21 0.0128884
24 0.0133282
27 0.0132364
30 0.0108548
33 0.00457823
36 0.00332319
39 0.00335136
42 0.00347857
45 0.00353022
48 0.00342628
51 0.00347044
54 0.00345235
57 0.00347405
60 0.00357313
63 0.00352564
66 0.00360284
69 0.0036091
72 0.00363066
75 0.0037072
78 0.00380773
81 0.00394338
84 0.0039708
87 0.00401462
90 0.00393174
93 0.00384297
96 0.00377447
99 0.00371637
102 0.00366629
105 0.00365429
108 0.00364595
111 0.00360177
114 0.00354889
117 0.00353454
120 0.00345411
123 0.00345965
126 0.00327835
129 0.00340808
132 0.00331848
135 0.00329031
138 0.00320647
141 0.00313639
144 0.00318285
147 0.0031768
150 0.00303705
153 0.00303342
156 0.00295765
159 0.00297121
162 0.00291121
165 0.0028466
168 0.00281165
171 0.00280308
174 0.00270713
177 0.00267026
180 0.0026188
183 0.00258963
186 0.00249565
189 0.00237815
192 0.00236714
195 0.00239709
198 0.00234409
201 0.00231179
204 0.0023258
207 0.00226423
210 0.00224115
213 0.00210993
216 0.00213792
219 0.00212013
222 0.00215844
225 0.00206401
228 0.00214239
231 0.00211253
234 0.00219554
237 0.00208996
240 0.00211255
243 0.00212045
246 0.00215927
249 0.00211928
252 0.00216094
255 0.00221681
258 0.00224678
261 0.00226673
264 0.00228811
267 0.00227898
270 0.0022782
273 0.00245077
276 0.00251229
279 0.00256078
282 0.00259294
285 0.00264838
288 0.00256036
291 0.00273575
294 0.00258602
297 0.00240482
300 0.00224827
303 0.00204132
306 0.00194094
309 0.001964
312 0.00202656
315 0.00207043
318 0.00213966
321 0.00242743
324 0.00302162
327 0.00641926
330 0.0325821
333 0.112325
336 0.0570522
339 0.00763354
342 0.0027002
345 0.00180429
348 0.00149912
351 0.00133033
354 0.00129268
357 0.00265583
360 0.00421304
363 0.00320936
366 0.00169074
369 0.00110657
372 0.000715925
375 0.000807512
378 0.0006902
381 0.000800158
384 0.000709179
387 0.000788733
390 0.000887762
393 0.000759393
396 0.00082043
399 0.000818763
402 0.000843481
405 0.000934619
408 0.00100955
411 0.00117578
414 0.00152811
417 0.00125572
420 0.00114923
423 0.001184
426 0.00156819
429 0.0012747
432 0.00138364
435 0.00144102
438 0.00160463
441 0.00186684
444 0.00205173
447 0.00255062
450 0.00316042
453 0.0038825
456 0.00508626
459 0.00668487
462 0.0101429
465 0.0213233
468 0.0864951
471 0.704667
474 0.739748
477 0.102838
480 0.0210609
483 0.00966936
486 0.00619625
489 0.00449512
492 0.00338927
495 0.00261411
498 0.0020674
501 0.00176829
504 0.00191246
507 0.0023122
510 0.0025818
513 0.00199582
516 0.00168931
519 0.00113934
522 0.000681475
525 0.000650738
528 0.000511455
531 0.000469132
534 0.000419645
537 0.000399983
540 0.000380467
543 0.000414094
546 0.0003237
549 0.000436301
552 0.000557976
555 0.000540362
558 0.000822254
561 0.00111184
564 0.0016774
567 0.00240468
570 0.00411007
573 0.0108328
576 0.0707206
579 0.381947
582 0.0970178
585 0.0121305
588 0.00442851
591 0.00264453
594 0.00192132
597 0.00145355
600 0.00105814
603 0.000912969
606 0.000743301
609 0.000627808
612 0.000790641
615 0.000865426
618 0.000658709
621 0.001354
624 0.00200491
627 0.00186102
630 0.00158955
633 0.00156409
636 0.00169347
639 0.00160106
642 0.00159291
645 0.00190728
648 0.00231937
651 0.00366105
654 0.00547604
657 0.00877248
660 0.0187119
663 0.0607989
666 0.188447
669 0.307664
672 0.262237
675 0.0423646
678 0.0127367
681 0.00654099
684 0.00440013
687 0.00369645
690 0.00355107
693 0.00253087
696 0.00168762
699 0.0011627
702 0.000921279
705 0.000879787
708 0.000772347
711 0.000634879
714 0.000746092
717 0.000800979
720 0.000726396
723 0.00103173
726 0.00077898
729 0.00103828
732 0.00129598
735 0.00199866
738 0.00368721
741 0.00952826
744 0.0398789
747 0.101967
750 0.119474
753 0.0248426
756 0.00560357
759 0.00240728
762 0.00151454
765 0.001132
768 0.000849103
771 0.000880803
774 0.000824127
777 0.000821068
780 0.000779183
783 0.000993914
786 0.00160275
789 0.0017722
792 0.00199379
795 0.0025127
798 0.00308098
801 0.00422358
804 0.0057376
807 0.0082801
810 0.0150954
813 0.0390527
816 0.175244
819 0.531507
822 0.421123
825 0.0652528
828 0.0181226
831 0.00887911
834 0.00566375
837 0.00414539
840 0.00304358
843 0.00230392
846 0.00199483
849 0.0015196
852 0.00113135
855 0.00134004
858 0.00153857
861 0.000862045
864 0.000640978
867 0.000602786
870 0.000634824
873 0.00065995
876 0.000460328
879 0.000636728
882 0.000888745
885 0.000765098
888 0.000703914
891 0.000564233
894 0.000606968
897 0.000514448
900 0.000320116
903 0.00060559
906 0.000320638
909 0.00047252
912 0.000288116
915 0.000302452
918 0.000412378
921 0.00106996
924 0.00118693
927 0.00170909
930 0.00224887
933 0.00428489
936 0.00722989
939 0.0166774
942 0.0620853
945 0.284369
948 0.29432
951 0.104292
954 0.0209789
957 0.00812851
960 0.00419346
963 0.00288595
966 0.00188527
969 0.00174931
972 0.00150251
975 0.00169461
978 0.00177053
981 0.00132032
984 0.00127244
987 0.00120397
990 0.00156773
993 0.00280706
996 0.00588221
999 0.0170372
1002 0.0594228
1005 0.102909
1008 0.0414862
1011 0.00839899
1014 0.00320406
1017 0.00172048
1020 0.00151153
1023 0.00133423
1026 0.00111132
1029 0.00114882
1032 0.00145413
1035 0.00199996
1038 0.00281885
1041 0.0039888
1044 0.00600001
1047 0.0108883
1050 0.0252053
1053 0.079657
1056 0.131157
1059 0.18885
1062 0.221937
1065 0.0508901
1068 0.0154482
1071 0.00730944
1074 0.00482998
1077 0.00334138
1080 0.0029659
1083 0.00207088
1086 0.00182608
1089 0.00205008
1092 0.00241303
1095 0.00330518
1098 0.00499644
1101 0.00917726
1104 0.0260813
1107 0.0687015
1110 0.0919097
1113 0.134611
1116 0.0359011
1119 0.00920904
1122 0.00397761
1125 0.00234711
1128 0.00160452
1131 0.00131849
1134 0.000913606
1137 0.000902256
1140 0.0011549
1143 0.00151448
1146 0.0017916
1149 0.00282645
1152 0.00489474
1155 0.0157024
1158 0.0853967
1161 0.161061
1164 0.0310653
1167 0.00708001
1170 0.00300857
1173 0.00182694
1176 0.00121455
1179 0.00092016
1182 0.000849626
1185 0.00101031
1188 0.00115062
1191 0.00133955
1194 0.00196563
1197 0.00304911
1200 0.00577169
1203 0.0179324
1206 0.0371714
1209 0.0440175
1212 0.0222249
1215 0.00592324
1218 0.00291006
1221 0.00260601
1224 0.00255305
1227 0.00257128
1230 0.0031372
1233 0.00411788
1236 0.00505178
1239 0.00747848
1242 0.0127971
1245 0.0262781
1248 0.0826846
1251 0.236202
1254 0.347972
1257 0.192655
1260 0.0419126
1263 0.014689
1266 0.00774382
1269 0.00528007
1272 0.00335714
1275 0.00270523
1278 0.00190659
1281 0.00145737
1284 0.00141905
1287 0.000783054
1290 0.000892535
1293 0.000624264
1296 0.000299202
1299 0.000623482
1302 0.000462075
1305 0.000628691
1308 0.000347877
1311 0.000528499
1314 0.000434463
1317 0.00060586
1320 0.000713726
1323 0.0015275
1326 0.00202535
1329 0.00491403
1332 0.0127445
1335 0.0198064
1338 0.0158425
1341 0.0302835
1344 0.0453592
1347 0.0132451
1350 0.00446204
1353 0.00225313
1356 0.00168694
1359 0.00148436
1362 0.00109434
1365 0.00174516
1368 0.00240615
1371 0.00492063
1374 0.0125333
1377 0.0236966
1380 0.0435507
1383 0.0647321
1386 0.0334636
1389 0.00896894
1392 0.00366481
1395 0.00256884
1398 0.00285924
1401 0.00310064
1404 0.00378337
1407 0.00547007
1410 0.010196
1413 0.0239111
1416 0.0567634
1419 0.0881371
1422 0.117619
1425 0.140571
1428 0.0455986
1431 0.0137371
1434 0.00716071
1437 0.00472018
1440 0.00331435
1443 0.00297126
1446 0.00263521
1449 0.00347462
1452 0.00523991
1455 0.0124077
1458 0.0445899
1461 0.0623941
1464 0.0406673
1467 0.0122165
1470 0.00445147
1473 0.00306822
1476 0.0027551
1479 0.00327887
1482 0.00431413
1485 0.00605789
1488 0.0113294
1491 0.0275308
1494 0.0628482
1497 0.0682382
1500 0.117602
1503 0.100585
1506 0.0297349
1509 0.0106096
1512 0.00560586
1515 0.0037082
1518 0.00309052
1521 0.00318891
1524 0.00413955
1527 0.0071258
1530 0.0173782
1533 0.0253857
1536 0.0331754
1539 0.0442946
1542 0.0155391
1545 0.00464103
1548 0.00252478
1551 0.00148387
1554 0.00146952
1557 0.0018971
1560 0.00267097
1563 0.00474671
1566 0.0111336
1569 0.0406263
1572 0.106339
1575 0.0648824
1578 0.0153086
1581 0.00499495
1584 0.00256928
1587 0.00141942
1590 0.00145751
1593 0.00090038
1596 0.000775422
1599 0.000608872
1602 0.000385846
1605 0.000910331
1608 0.000203601
1611 0.000595295
1614 0.000607302
1617 0.00105973
1620 0.0011126
1623 0.00188595
1626 0.00237922
1629 0.00361737
1632 0.00687942
1635 0.0170067
1638 0.04541
1641 0.0662315
1644 0.109352
1647 0.0562404
1650 0.0144654
1653 0.00662416
1656 0.00402193
1659 0.00324223
1662 0.00295557
1665 0.00373617
1668 0.00540612
1671 0.00957399
1674 0.0159829
1677 0.0185377
1680 0.0179159
1683 0.00991519
1686 0.00496194
1689 0.00495412
1692 0.00566302
1695 0.008148
1698 0.0141883
1701 0.0302739
1704 0.0566777
1707 0.0977004
1710 0.129284
1713 0.139357
1716 0.0727736
1719 0.0226422
1722 0.0109928
1725 0.00727766
1728 0.00629636
1731 0.00745931
1734 0.012163
1737 0.0155823
1740 0.0172661
1743 0.0315434
1746 0.035729
1749 0.0166982
1752 0.00543793
1755 0.00265523
1758 0.0014868
1761 0.0010684
1764 0.000674539
1767 0.000553752
1770 0.000392488
1773 0.000672703
1776 0.000444862
1779 0.000769581
1782 0.000417635
1785 0.000585899
1788 0.000845472
1791 0.00172833
1794 0.00279079
1797 0.00554404
1800 0.0113528
1803 0.0219433
1806 0.0351873
1809 0.0385172
1812 0.0169649
1815 0.00643121
1818 0.00459086
1821 0.00475027
1824 0.00703894
1827 0.0141148
1830 0.0310994
1833 0.0366242
1836 0.0339637
1839 0.0670229
1842 0.0713373
1845 0.0233525
1848 0.00830803
1851 0.00432933
1854 0.00245698
1857 0.00172081
1860 0.000951325
1863 0.000695729
1866 0.000685414
1869 0.000590205
1872 0.000361554
1875 0.000146721
1878 0.000539148
1881 0.000428488
1884 0.00115935
1887 0.00167629
1890 0.00401032
1893 0.0117695
1896 0.0276607
1899 0.020844
1902 0.0176105
1905 0.00949087
1908 0.00341588
1911 0.00219301
1914 0.00219976
1917 0.00296169
1920 0.00539833
1923 0.0107348
1926 0.0160607
1929 0.0177537
1932 0.0163201
1935 0.00643939
1938 0.003552
1941 0.00343379
1944 0.00501327
1947 0.00846492
1950 0.0189451
1953 0.0348718
1956 0.0623788
1959 0.067344
1962 0.0329617
1965 0.0124351
1968 0.00626841
1971 0.00512584
1974 0.00577101
1977 0.00982264
1980 0.0187071
1983 0.0212154
1986 0.0290842
1989 0.0319515
1992 0.0171224
1995 0.00687331
1998 0.00467079
2001 0.00625391
2004 0.00887302
2007 0.0128462
2010 0.0285947
2013 0.0541339
2016 0.0467238
2019 0.0324278
2022 0.0119867
2025 0.0059384
2028 0.00467128
2031 0.00503012
2034 0.00504788
2037 0.0042207
2040 0.00428828
2043 0.0058138
2046 0.00953181
2049 0.00746665
2052 0.00575313
2055 0.00695765
2058 0.0121443
2061 0.0210917
2064 0.0334465
2067 0.0397594
2070 0.0576375
2073 0.0734472
2076 0.037777
2079 0.0126671
2082 0.00683649
2085 0.00385673
2088 0.00356617
2091 0.00255323
2094 0.00188874
2097 0.00176517
2100 0.00209751
2103 0.00233792
2106 0.00298382
2109 0.00390208
2112 0.00805586
2115 0.0131564
2118 0.0127891
2121 0.0104092
2124 0.0161133
2127 0.0321594
2130 0.0247052
2133 0.010095
2136 0.00621571
2139 0.0067902
2142 0.00938374
2145 0.0120967
2148 0.0174777
2151 0.0224144
2154 0.0221343
2157 0.0129663
2160 0.00603878
2163 0.0047185
2166 0.00668316
2169 0.01253
2172 0.0271452
2175 0.0380089
2178 0.0327062
2181 0.0286972
2184 0.0145767
2187 0.0055234
2190 0.00358616
2193 0.00307884
2196 0.00539821
2199 0.00898938
2202 0.0113352
2205 0.0148323
2208 0.00644417
2211 0.00354536
2214 0.00385498
2217 0.00603785
2220 0.0110909
2223 0.0113962
2226 0.0100768
2229 0.0171092
2232 0.0288495
2235 0.0151073
2238 0.00616663
2241 0.00402859
2244 0.00485748
2247 0.00686388
2250 0.0112182
2253 0.0140012
2256 0.0147833
2259 0.0106985
2262 0.00558843
2265 0.00511125
2268 0.00821724
2271 0.0142308
2274 0.0150534
2277 0.0143786
2280 0.026268
2283 0.030367
2286 0.015013
2289 0.00543985
2292 0.00283727
2295 0.00182698
2298 0.00100585
2301 0.000524231
2304 0.000250108
2307 0.000489071
2310 0.000160128
2313 0.000568185
2316 0.000749692
2319 0.00131809
2322 0.00197049
2325 0.00602848
2328 0.0129473
2331 0.00696519
2334 0.00238013
2337 0.00217559
2340 0.00274894
2343 0.00404261
2346 0.00584017
2349 0.00579015
2352 0.00696605
2355 0.0110693
2358 0.00925081
2361 0.00661451
2364 0.00828287
2367 0.0116534
2370 0.0157358
2373 0.0306019
2376 0.0442723
2379 0.0435106
2382 0.0311149
2385 0.0148146
2388 0.00940219
2391 0.00809661
2394 0.00833805
2397 0.0109512
2400 0.0115681
2403 0.0119141
2406 0.013463
2409 0.00769182
2412 0.00554092
2415 0.00709809
2418 0.0110586
2421 0.0112214
2424 0.0149896
2427 0.0154658
2430 0.0132977
2433 0.00796468
2436 0.00579727
2439 0.00626972
2442 0.00742709
2445 0.00795303
2448 0.00983275
2451 0.0117258
2454 0.0109331
2457 0.00985899
2460 0.0138451
2463 0.0174024
2466 0.0213629
2469 0.0268236
2472 0.0334816
2475 0.0412956
2478 0.0233178
2481 0.00875481
2484 0.00551896
2487 0.00340669
2490 0.00296085
2493 0.00297164
2496 0.0029157
2499 0.00264361
2502 0.00318399
2505 0.00474894
2508 0.0098271
2511 0.0171305
2514 0.0201925
2517 0.0268359
2520 0.0277711
2523 0.0160357
2526 0.00708677
2529 0.00461778
2532 0.0046154
2535 0.0047549
2538 0.00664397
2541 0.00824952
2544 0.00556226
2547 0.00451254
2550 0.00451607
2553 0.0053421
2556 0.00411012
2559 0.00365592
2562 0.00619273
2565 0.00935061
2568 0.00885945
2571 0.00545903
2574 0.0070135
2577 0.00649997
2580 0.00795997
2583 0.0110905
2586 0.0140499
2589 0.0122396
2592 0.00551518
2595 0.00189667
2598 0.00066559
2601 0.000758878
2604 0.000711857
2607 0.000708309
2610 0.001239
2613 0.000676854
2616 0.00170551
2619 0.00240559
2622 0.00542774
2625 0.00701817
2628 0.00862125
2631 0.00806275
2634 0.00596827
2637 0.00701441
2640 0.010869
2643 0.0153208
2646 0.0196078
2649 0.0219069
2652 0.0252486
2655 0.0223462
2658 0.0100042
2661 0.00395599
2664 0.0020164
2667 0.00132804
2670 0.000447395
2673 0.000831016
2676 0.00110702
2679 0.000835423
2682 0.00101349
2685 0.000750859
2688 0.000476021
2691 0.000353095
2694 0.00164807
2697 0.00306763
2700 0.00394933
2703 0.00298767
2706 0.0041549
2709 0.0056727
2712 0.00698438
2715 0.00788619
2718 0.00887981
2721 0.00931585
2724 0.00979864
2727 0.0109431
2730 0.0110023
2733 0.0188792
2736 0.023034
2739 0.0205253
2742 0.0133199
2745 0.00592149
2748 0.00459791
2751 0.00372378
2754 0.00370938
2757 0.0056266
2760 0.00663444
2763 0.0057203
2766 0.00474241
2769 0.00593652
2772 0.00928832
2775 0.0125264
2778 0.0168423
2781 0.0150035
2784 0.00955057
2787 0.00620813
2790 0.00448816
2793 0.00410186
2796 0.0048365
2799 0.00713618
2802 0.00713475
2805 0.00437413
2808 0.00395736
2811 0.00693688
2814 0.0115542
2817 0.0123162
2820 0.0101061
2823 0.00504857
2826 0.00140172
2829 0.000988001
2832 0.00124929
2835 0.000342917
2838 0.000847406
2841 0.00122325
2844 0.00203461
2847 0.00358766
2850 0.00372162
2853 0.00525326
2856 0.00563157
2859 0.00680104
2862 0.0102538
2865 0.00916395
2868 0.00365105
2871 0.00321882
2874 0.00475958
2877 0.00339218
2880 0.00574209
2883 0.00582115
2886 0.00891751
2889 0.0106133
2892 0.0118
2895 0.0117242
2898 0.0177929
2901 0.0226352
2904 0.0154163
2907 0.00937782
2910 0.00709923
2913 0.0056536
2916 0.00776976
2919 0.00623642
2922 0.00557233
2925 0.00411535
2928 0.00244431
2931 0.00548203
2934 0.00756615
2937 0.00594612
2940 0.00542314
2943 0.00594694
2946 0.00317584
2949 0.00377868
2952 0.00331952
2955 0.00467441
2958 0.00587393
2961 0.00608073
2964 0.00383948
2967 0.00378609
2970 0.00601228
2973 0.00622254
2976 0.00689566
2979 0.0073409
2982 0.00490453
2985 0.00154695
2988 0.001399
2991 0.000711366
2994 0.000308417
2997 0.000175503
3000 0.000990889
3003 0.00199286
3006 0.00253749
3009 0.00172223
3012 0.00264253
3015 0.00425893
3018 0.00551938
3021 0.00562565
3024 0.00356219
3027 0.00535862
3030 0.00441605
3033 0.00612147
3036 0.00722474
3039 0.00715222
3042 0.00439325
3045 0.00317878
3048 0.00352894
3051 0.00376112
3054 0.00727265
3057 0.00863455
3060 0.00709569
3063 0.00567868
3066 0.00483481
3069 0.00518283
3072 0.00596272
3075 0.00837767
3078 0.00864808
3081 0.00667748
3084 0.00458403
3087 0.00449868
3090 0.00787718
3093 0.0112598
3096 0.00870218
3099 0.00470055
3102 0.0043885
3105 0.00445057
3108 0.00529309
3111 0.00533949
3114 0.00832403
3117 0.00756208
3120 0.00837595
3123 0.0113993
3126 0.0121631
3129 0.0120282
3132 0.0123159
3135 0.00886322
3138 0.00414983
3141 0.00387655
3144 0.00338517
3147 0.00160819
3150 0.00187754
3153 0.0032454
3156 0.0026949
3159 0.00621742
3162 0.00645035
3165 0.00669104
3168 0.00473184
3171 0.0042678
3174 0.00601915
3177 0.00598086
3180 0.00544581
3183 0.00806081
3186 0.00814386
3189 0.00990034
3192 0.00997974
3195 0.00959409
3198 0.0117384
3201 0.014722
3204 0.0139901
3207 0.00876794
3210 0.00531041
3213 0.0049028
3216 0.00452011
3219 0.00470226
3222 0.00487644
3225 0.00431273
3228 0.00317548
3231 0.00301119
3234 0.00258161
3237 0.00037988
3240 0.0025282
3243 0.00225367
3246 0.00187661
3249 0.00328271
3252 0.00422235
3255 0.00351886
3258 0.00420102
3261 0.00570114
3264 0.00591279
3267 0.00737152
3270 0.00849214
3273 0.00843047
3276 0.0107457
3279 0.00646361
3282 0.00312027
3285 0.000785406
3288 0.00296378
3291 0.000854324
3294 0.00221305
3297 0.0020777
3300 0.00274085
3303 0.00438435
3306 0.00390686
3309 0.00524112
3312 0.00596474
3315 0.00283147
3318 0.00162255
3321 0.00366133
3324 0.0043201
3327 0.00641131
3330 0.00591453
3333 0.00473405
3336 0.00845408
3339 0.00766602
3342 0.0104195
3345 0.0105419
3348 0.00868467
3351 0.00642291
3354 0.00625993
3357 0.00655594
3360 0.00704781
3363 0.00537558
3366 0.00489457
3369 0.00339658
3372 0.00568467
3375 0.00631413
3378 0.00489536
3381 0.00651505
3384 0.00692708
3387 0.00755817
3390 0.00687914
3393 0.00636986
3396 0.00398111
3399 0.00542264
3402 0.00482586
3405 0.00551232
3408 0.00405365
3411 0.00832781
3414 0.00917854
3417 0.00744866
3420 0.00396673
3423 0.00527416
3426 0.000943703
3429 0.0050848
3432 0.00612836
3435 0.0040566
3438 0.00285169
3441 0.00784328
3444 0.00801107
3447 0.0119138
3450 0.0083642
3453 0.00767986
3456 0.00675161
3459 0.00687728
3462 0.00830709
3465 0.00271206
3468 0.0107057
3471 0.0101443
3474 0.00212802
3477 0.00443497
3480 0.00622196
3483 0.0135902
3486 0.0212377
3487 0.00644237