File: constrainednmf/example_data/BaTiO3_xrd_ramp/BTO_405K_tth.xy
0.000000000000000000e+00 2.98721e-05
3 0.000107585
6 0.000320365
9 0.00239071
12 0.0119712
15 0.0136647
18 0.012941
21 0.0122766
24 0.0126211
27 0.0125454
30 0.0101123
33 0.00382809
36 0.00263265
39 0.00261645
42 0.00271886
45 0.00275963
48 0.00270747
51 0.00268743
54 0.00270484
57 0.00269643
60 0.00274383
63 0.00285759
66 0.00282985
69 0.00284286
72 0.00293757
75 0.00296473
78 0.00303292
81 0.00321659
84 0.00329246
87 0.00332259
90 0.00325862
93 0.00319242
96 0.00319641
99 0.00316236
102 0.00306691
105 0.00309268
108 0.00309315
111 0.00307548
114 0.00304058
117 0.00306407
120 0.00299393
123 0.00300888
126 0.00287133
129 0.00300571
132 0.00298298
135 0.00291448
138 0.00290648
141 0.00287249
144 0.00281283
147 0.0029086
150 0.00280642
153 0.00280986
156 0.0027106
159 0.00272686
162 0.00268621
165 0.00261031
168 0.00262327
171 0.00265239
174 0.00260736
177 0.00253654
180 0.00251013
183 0.002485
186 0.00238483
189 0.00236237
192 0.00238935
195 0.00233667
198 0.00229983
201 0.00234637
204 0.00226964
207 0.00223817
210 0.0021582
213 0.0022672
216 0.00222388
219 0.00218693
222 0.00226741
225 0.00220522
228 0.00217969
231 0.00224246
234 0.00223336
237 0.00219754
240 0.00221417
243 0.0022341
246 0.00226722
249 0.00224646
252 0.00229494
255 0.00233829
258 0.00230405
261 0.00237311
264 0.00233234
267 0.00242323
270 0.00239064
273 0.00245891
276 0.00248727
279 0.00270287
282 0.00278174
285 0.00278895
288 0.00269181
291 0.00268331
294 0.00272294
297 0.00249406
300 0.00233774
303 0.00219836
306 0.00216451
309 0.00218086
312 0.00213768
315 0.00209342
318 0.00219883
321 0.00232163
324 0.00299837
327 0.00630904
330 0.031692
333 0.11361
336 0.055266
339 0.00742075
342 0.00274531
345 0.00189687
348 0.00153289
351 0.00140238
354 0.00151199
357 0.00280354
360 0.00423364
363 0.00310659
366 0.00166643
369 0.00106264
372 0.00089107
375 0.000772418
378 0.000719499
381 0.000842325
384 0.000886273
387 0.00072933
390 0.000758461
393 0.000804206
396 0.000803645
399 0.000805953
402 0.000990042
405 0.000799447
408 0.000949278
411 0.00114366
414 0.00127756
417 0.00117898
420 0.00109448
423 0.00123849
426 0.00131634
429 0.00115902
432 0.00120509
435 0.00127896
438 0.00159051
441 0.00184126
444 0.00215531
447 0.00244869
450 0.00302058
453 0.00366684
456 0.00456955
459 0.00650263
462 0.00981066
465 0.0211314
468 0.0856074
471 0.701733
474 0.73155
477 0.0992206
480 0.0205564
483 0.0094269
486 0.00605193
489 0.00423613
492 0.00319729
495 0.00243055
498 0.00187839
501 0.00162598
504 0.0018508
507 0.00224544
510 0.0024901
513 0.00196159
516 0.00153948
519 0.00101559
522 0.000470314
525 0.000267052
528 0.000245359
531 0.00011596
534 9.92878e-05
537 3.07041e-05
540 0.000344878
543 8.34742e-05
546 0.000192101
549 0.000255458
552 0.00047869
555 0.000567153
558 0.000716783
561 0.00112207
564 0.00166511
567 0.00212141
570 0.00394833
573 0.0106731
576 0.0710298
579 0.379383
582 0.0945822
585 0.0119254
588 0.00413279
591 0.00233524
594 0.0017283
597 0.00111835
600 0.00088481
603 0.000733639
606 0.000466155
609 0.000486599
612 0.000482941
615 0.000479369
618 0.000626812
621 0.00118769
624 0.00172148
627 0.00172992
630 0.00161435
633 0.00122507
636 0.00156451
639 0.00121903
642 0.00134003
645 0.00153401
648 0.00218627
651 0.00341254
654 0.005181
657 0.00871641
660 0.0180356
663 0.0573846
666 0.185531
669 0.322452
672 0.24758
675 0.0402905
678 0.012105
681 0.00608473
684 0.00403486
687 0.00342896
690 0.0031694
693 0.00215577
696 0.00144834
699 0.0009824
702 0.00087472
705 0.000838277
708 0.000684551
711 0.000632898
714 0.000377553
717 0.000539742
720 0.000640945
723 0.000786288
726 0.000617936
729 0.000625391
732 0.00134623
735 0.0018312
738 0.00362746
741 0.00905196
744 0.0377565
747 0.104774
750 0.117296
753 0.0231501
756 0.00513479
759 0.00212581
762 0.00128907
765 0.000797901
768 0.000751745
771 0.000623159
774 0.000754888
777 0.000779062
780 0.000795048
783 0.000857581
786 0.00118554
789 0.00148077
792 0.00189755
795 0.00234087
798 0.00282908
801 0.0036797
804 0.0055216
807 0.00840948
810 0.0149604
813 0.03823
816 0.170356
819 0.543098
822 0.404506
825 0.0625097
828 0.0174932
831 0.0086014
834 0.00564557
837 0.00394384
840 0.00273187
843 0.00210259
846 0.00154213
849 0.00128753
852 0.000999329
855 0.000797693
858 0.0010314
861 0.000770793
864 0.000639825
867 0.000492728
870 0.000369962
873 0.000258147
876 0.000337954
879 0.000382653
882 0.000677627
885 0.000448375
888 0.000317556
891 0.000167639
894 6.32499e-05
897 0.000145185
900 3.81906e-05
903 0.000160081
906 0.00025802
909 0.000158062
912 0.000309086
915 0.000331183
918 0.000407761
921 0.00077814
924 0.00111608
927 0.00159788
930 0.00233791
933 0.00377026
936 0.00705718
939 0.0164969
942 0.0610626
945 0.281688
948 0.298261
951 0.0968102
954 0.0197942
957 0.00748471
960 0.00403153
963 0.00276545
966 0.00183703
969 0.00154098
972 0.00138684
975 0.00107751
978 0.00116539
981 0.00099233
984 0.000752636
987 0.000894054
990 0.00142942
993 0.00266355
996 0.00537206
999 0.0161812
1002 0.0588112
1005 0.103773
1008 0.038716
1011 0.00773004
1014 0.00262078
1017 0.00136357
1020 0.00100916
1023 0.000906764
1026 0.000936743
1029 0.00103472
1032 0.0012326
1035 0.00198852
1038 0.00202745
1041 0.00360565
1044 0.0056798
1047 0.010277
1050 0.023742
1053 0.0736444
1056 0.132889
1059 0.201022
1062 0.209808
1065 0.0466703
1068 0.0146022
1071 0.00688838
1074 0.00466731
1077 0.00306428
1080 0.00239592
1083 0.00208704
1086 0.00186721
1089 0.0019789
1092 0.00208006
1095 0.00293124
1098 0.00460534
1101 0.0083728
1104 0.0243372
1107 0.0667112
1110 0.0974695
1113 0.131016
1116 0.0324394
1119 0.00851163
1122 0.00356576
1125 0.00182163
1128 0.0013442
1131 0.000813895
1134 0.000680565
1137 0.000432398
1140 0.000541921
1143 0.000802534
1146 0.00136063
1149 0.00219566
1152 0.00481645
1155 0.0154968
1158 0.0857087
1161 0.15846
1164 0.0291326
1167 0.00651697
1170 0.00278393
1173 0.00138453
1176 0.000889254
1179 0.000558652
1182 0.000353584
1185 0.000802686
1188 0.000908215
1191 0.000875571
1194 0.00147517
1197 0.00259045
1200 0.00557056
1203 0.0170926
1206 0.0375692
1209 0.0448364
1212 0.0205155
1215 0.00544957
1218 0.0025919
1221 0.00194806
1224 0.00202754
1227 0.00242429
1230 0.00283477
1233 0.00380315
1236 0.00468836
1239 0.0072296
1242 0.0121689
1245 0.0253346
1248 0.0789278
1251 0.235327
1254 0.355673
1257 0.180893
1260 0.0392369
1263 0.0143595
1266 0.00770234
1269 0.00485721
1272 0.00322964
1275 0.00198818
1278 0.0016714
1281 0.00138174
1284 0.00104563
1287 0.000622135
1290 0.000545081
1293 0.000668094
1296 0.000297073
1299 0.000635366
1302 0.000295815
1305 0.000267973
1308 0.000180438
1311 0.000343923
1314 0.000221225
1317 0.000666488
1320 0.000606072
1323 0.00129911
1326 0.00207202
1329 0.00472779
1332 0.0113764
1335 0.0196931
1338 0.0170907
1341 0.0329154
1344 0.0425945
1347 0.0118579
1350 0.00404565
1353 0.00216052
1356 0.00156856
1359 0.00133252
1362 0.00117665
1365 0.0015352
1368 0.00259793
1371 0.00471305
1374 0.0114983
1377 0.0231716
1380 0.0452212
1383 0.0659164
1386 0.0311655
1389 0.00843145
1392 0.00367919
1395 0.00285427
1398 0.00265045
1401 0.00298736
1404 0.00405017
1407 0.00594072
1410 0.00996054
1413 0.0226103
1416 0.0541265
1419 0.0899176
1422 0.123976
1425 0.136707
1428 0.0414162
1431 0.0136308
1434 0.00670094
1437 0.00444264
1440 0.00359048
1443 0.0030662
1446 0.00276438
1449 0.00363509
1452 0.00532722
1455 0.0125232
1458 0.0439321
1461 0.0636663
1464 0.0395541
1467 0.0115503
1470 0.00499238
1473 0.00335387
1476 0.00296877
1479 0.00309348
1482 0.00434044
1485 0.00623537
1488 0.0106849
1491 0.0261119
1494 0.0603649
1497 0.0724942
1500 0.122213
1503 0.0948333
1506 0.0270961
1509 0.0102697
1512 0.00582899
1515 0.00381224
1518 0.00316011
1521 0.00307601
1524 0.00395174
1527 0.00695758
1530 0.016657
1533 0.0256688
1536 0.0355284
1539 0.0432631
1542 0.0144263
1545 0.00488579
1548 0.00251725
1551 0.00191839
1554 0.00182559
1557 0.00226026
1560 0.00277018
1563 0.0049585
1566 0.0115902
1569 0.0406226
1572 0.106786
1575 0.0629128
1578 0.0142789
1581 0.00513648
1584 0.0029907
1587 0.00202114
1590 0.00141585
1593 0.00105609
1596 0.000951069
1599 0.0012214
1602 0.00139669
1605 0.000625736
1608 0.000899015
1611 0.00117733
1614 0.00137361
1617 0.00113125
1620 0.00177535
1623 0.00184391
1626 0.00277455
1629 0.00399577
1632 0.00704049
1635 0.0164407
1638 0.0435454
1641 0.0684822
1644 0.111881
1647 0.0526789
1650 0.0139807
1653 0.00661194
1656 0.00423013
1659 0.00360185
1662 0.00356024
1665 0.00387958
1668 0.00555875
1671 0.00947566
1674 0.0163433
1677 0.0197602
1680 0.0181471
1683 0.00961333
1686 0.00557588
1689 0.00499457
1692 0.00573845
1695 0.00880564
1698 0.0143421
1701 0.0282787
1704 0.0546198
1707 0.098136
1710 0.134792
1713 0.140391
1716 0.0655616
1719 0.0209691
1722 0.0108702
1725 0.00740764
1728 0.00630126
1731 0.0071944
1734 0.0112395
1737 0.0157155
1740 0.0179247
1743 0.0329598
1746 0.0356023
1749 0.0152818
1752 0.00468597
1755 0.00265663
1758 0.0015777
1761 0.00141989
1764 0.000867231
1767 0.00043752
1770 0.000730775
1773 0.000522816
1776 0.000336907
1779 0.00030903
1782 0.000393326
1785 0.000756634
1788 0.00101011
1791 0.00174227
1794 0.00277792
1797 0.0050614
1800 0.0114272
1803 0.0219296
1806 0.0363686
1809 0.0379067
1812 0.0155676
1815 0.00615994
1818 0.00423729
1821 0.00483332
1824 0.00657288
1827 0.0129551
1830 0.0288129
1833 0.037155
1836 0.0364577
1839 0.0710847
1842 0.0665973
1845 0.0206248
1848 0.00779545
1851 0.00398225
1854 0.00221262
1857 0.00121021
1860 0.000782423
1863 0.000534484
1866 2.28885e-05
1869 0.000372235
1872 0.000307812
1875 3.54018e-05
1878 0.000223929
1881 0.000861395
1884 0.000343125
1887 0.00111543
1890 0.00351361
1893 0.0111166
1896 0.0266824
1899 0.020627
1902 0.0175985
1905 0.0074818
1908 0.00285073
1911 0.00205146
1914 0.00148996
1917 0.00221488
1920 0.00489792
1923 0.0100576
1926 0.0161055
1929 0.0177493
1932 0.0148569
1935 0.00520258
1938 0.00282357
1941 0.00320996
1944 0.00399181
1947 0.0080845
1950 0.0174029
1953 0.0341361
1956 0.0628332
1959 0.0657982
1962 0.0302551
1965 0.0110281
1968 0.00542542
1971 0.00420219
1974 0.00513968
1977 0.00832851
1980 0.0170855
1983 0.0210237
1986 0.0297054
1989 0.0302456
1992 0.0146415
1995 0.00563054
1998 0.00412769
2001 0.00509296
2004 0.00763861
2007 0.0123361
2010 0.0276728
2013 0.0534317
2016 0.0479288
2019 0.0295733
2022 0.0103373
2025 0.00522434
2028 0.00387077
2031 0.00411907
2034 0.00420945
2037 0.0036765
2040 0.00322537
2043 0.00502507
2046 0.00914268
2049 0.00609712
2052 0.00483519
2055 0.00594506
2058 0.0106326
2061 0.019375
2064 0.0321198
2067 0.0400804
2070 0.0600555
2073 0.0716398
2076 0.0322755
2079 0.0110824
2082 0.00561727
2085 0.00357417
2088 0.00235873
2091 0.00147774
2094 0.00144409
2097 0.00134111
2100 0.00154798
2103 0.00144446
2106 0.00210711
2109 0.00323503
2112 0.00623023
2115 0.0116358
2118 0.0122681
2121 0.01028
2124 0.0166918
2127 0.0315628
2130 0.0217471
2133 0.00855613
2136 0.00520658
2139 0.00570761
2142 0.00848844
2145 0.0112317
2148 0.0173612
2151 0.0220894
2154 0.0211963
2157 0.0112908
2160 0.00544912
2163 0.00438074
2166 0.00550528
2169 0.0111707
2172 0.0254311
2175 0.0379012
2178 0.0332111
2181 0.0277604
2184 0.0122361
2187 0.00488359
2190 0.00277598
2193 0.00278552
2196 0.00403707
2199 0.00782854
2202 0.0122389
2205 0.0135336
2208 0.00509794
2211 0.00290161
2214 0.00325118
2217 0.00540316
2220 0.00989173
2223 0.0111463
2226 0.0103348
2229 0.0184194
2232 0.0279959
2235 0.0125682
2238 0.00505459
2241 0.00320815
2244 0.00414436
2247 0.00670103
2250 0.0106297
2253 0.0142654
2256 0.014262
2259 0.00973351
2262 0.00451807
2265 0.00417677
2268 0.0073231
2271 0.0128758
2274 0.0147481
2277 0.0150099
2280 0.0268962
2283 0.0290439
2286 0.0123099
2289 0.0042732
2292 0.00231559
2295 0.00119263
2298 0.000841655
2301 0.000640166
2304 0.00036825
2307 1.78145e-05
2310 0.000281012
2313 0.000363946
2316 0.00102772
2319 0.000729066
2322 0.00159939
2325 0.00531769
2328 0.0123723
2331 0.00648385
2334 0.00232619
2337 0.00158642
2340 0.00237611
2343 0.003962
2346 0.0054148
2349 0.00576006
2352 0.00723925
2355 0.0111986
2358 0.00886786
2361 0.00622127
2364 0.00770298
2367 0.0108884
2370 0.0158995
2373 0.0301152
2376 0.0453915
2379 0.0441972
2382 0.029167
2385 0.0135624
2388 0.00842136
2391 0.00754098
2394 0.00803448
2397 0.0109799
2400 0.0117348
2403 0.0124233
2406 0.0134658
2409 0.00727869
2412 0.00549547
2415 0.00669911
2418 0.0106053
2421 0.0124887
2424 0.0159918
2427 0.0153329
2430 0.013132
2433 0.00726208
2436 0.00585672
2439 0.00670446
2442 0.00796445
2445 0.00865379
2448 0.0102686
2451 0.01185
2454 0.0107353
2457 0.00901502
2460 0.0130949
2463 0.0175275
2466 0.0215335
2469 0.0277416
2472 0.0356197
2475 0.0405011
2478 0.0208195
2481 0.00842645
2484 0.00488137
2487 0.00380131
2490 0.00312437
2493 0.00318832
2496 0.00309882
2499 0.00312905
2502 0.00360759
2505 0.00518529
2508 0.00944038
2511 0.0168081
2514 0.0204179
2517 0.0284218
2520 0.027921
2523 0.0148055
2526 0.00693592
2529 0.00485518
2532 0.00465043
2535 0.00517114
2538 0.00721097
2541 0.00783296
2544 0.0056361
2547 0.00390948
2550 0.00433779
2553 0.00525078
2556 0.00468479
2559 0.00485657
2562 0.00662941
2565 0.00987991
2568 0.00807716
2571 0.00582916
2574 0.0061988
2577 0.0070871
2580 0.00871276
2583 0.0122845
2586 0.0146175
2589 0.0114307
2592 0.0049966
2595 0.00220797
2598 0.00155277
2601 0.000856096
2604 0.00069192
2607 0.00111399
2610 0.000841233
2613 0.000842404
2616 0.00166196
2619 0.00338388
2622 0.0057434
2625 0.00724175
2628 0.00832585
2631 0.00852298
2634 0.00583225
2637 0.00665274
2640 0.0108205
2643 0.0159908
2646 0.0200229
2649 0.0218011
2652 0.026153
2655 0.0207312
2658 0.00885142
2661 0.00387602
2664 0.00243829
2667 0.00160513
2670 0.000658668
2673 0.000795414
2676 0.000870764
2679 0.000772068
2682 0.000969549
2685 5.70913e-05
2688 0.000809494
2691 0.00166418
2694 0.00164214
2697 0.00303281
2700 0.0030183
2703 0.00318274
2706 0.00444947
2709 0.00624917
2712 0.00745931
2715 0.00825316
2718 0.00867795
2721 0.00784242
2724 0.00823691
2727 0.0116573
2730 0.0123731
2733 0.0200509
2736 0.0234091
2739 0.0206346
2742 0.0123843
2745 0.00638911
2748 0.00539467
2751 0.00346263
2754 0.00360616
2757 0.00575272
2760 0.00569078
2763 0.00466382
2766 0.00524021
2769 0.00645655
2772 0.00954061
2775 0.0131099
2778 0.017841
2781 0.0138347
2784 0.0091598
2787 0.00518544
2790 0.00450866
2793 0.00358487
2796 0.00536235
2799 0.00654462
2802 0.00645698
2805 0.00307845
2808 0.00420455
2811 0.00697952
2814 0.0111478
2817 0.0120397
2820 0.00995888
2823 0.0045874
2826 0.00198955
2829 0.00111821
2832 0.000654431
2835 0.000667515
2838 0.000988435
2841 0.00108727
2844 0.00240711
2847 0.0037971
2850 0.00423306
2853 0.00503953
2856 0.00600381
2859 0.0068099
2862 0.0103007
2865 0.00597344
2868 0.00330774
2871 0.00295595
2874 0.0034564
2877 0.00432952
2880 0.00505459
2883 0.00682633
2886 0.0078812
2889 0.0102251
2892 0.0119802
2895 0.012559
2898 0.0192493
2901 0.0225688
2904 0.0148025
2907 0.00710148
2910 0.00630738
2913 0.00623424
2916 0.00767806
2919 0.00723136
2922 0.00526276
2925 0.00416407
2928 0.00292428
2931 0.00483246
2934 0.00792722
2937 0.00644453
2940 0.00621913
2943 0.00506761
2946 0.00373337
2949 0.00316212
2952 0.00402562
2955 0.00596544
2958 0.00657245
2961 0.0055789
2964 0.00337024
2967 0.00408523
2970 0.00613065
2973 0.00648325
2976 0.00599935
2979 0.00629614
2982 0.00502441
2985 0.00222389
2988 0.0022314
2991 1.45972e-05
2994 0.00104503
2997 0.000794852
3000 0.00144665
3003 0.00318669
3006 0.00326409
3009 0.00216076
3012 0.00247082
3015 0.0043735
3018 0.00740757
3021 0.00531667
3024 0.0035323
3027 0.00409993
3030 0.00503801
3033 0.00660195
3036 0.00661498
3039 0.00609334
3042 0.00430271
3045 0.00445456
3048 0.00433654
3051 0.00477377
3054 0.00704682
3057 0.00861308
3060 0.00684634
3063 0.00649123
3066 0.00487519
3069 0.00660066
3072 0.00882575
3075 0.00917813
3078 0.00773504
3081 0.00670724
3084 0.00593466
3087 0.00615546
3090 0.00966272
3093 0.0115827
3096 0.00982791
3099 0.00570161
3102 0.00559626
3105 0.00474669
3108 0.00460862
3111 0.00730545
3114 0.0085175
3117 0.0078992
3120 0.00869939
3123 0.0127231
3126 0.0129055
3129 0.0115859
3132 0.0122779
3135 0.00772315
3138 0.00556496
3141 0.0022648
3144 0.00287483
3147 0.00196149
3150 0.00233786
3153 0.00267559
3156 0.00424144
3159 0.00559768
3162 0.00751695
3165 0.00691167
3168 0.00439877
3171 0.00522174
3174 0.00438182
3177 0.00533882
3180 0.00735605
3183 0.0080772
3186 0.00902773
3189 0.00748066
3192 0.00691327
3195 0.0100845
3198 0.0108945
3201 0.0141254
3204 0.0130433
3207 0.00859707
3210 0.00495375
3213 0.0018697
3216 0.00282552
3219 0.00317915
3222 0.00509789
3225 0.0030816
3228 0.00115802
3231 0.00176448
3234 0.00101774
3237 0.00203747
3240 0.00105256
3243 0.00256016
3246 0.00272619
3249 0.00240974
3252 0.00294469
3255 0.00351123
3258 0.00512829
3261 0.00585627
3264 0.00317142
3267 0.00674551
3270 0.00672066
3273 0.00813293
3276 0.00605003
3279 0.00527459
3282 0.00212279
3285 0.00119012
3288 0.000728617
3291 0.00220982
3294 0.00113591
3297 0.00102159
3300 0.00196305
3303 0.00229641
3306 0.00217891
3309 0.00420605
3312 0.00191158
3315 0.000702264
3318 0.000588488
3321 0.00191424
3324 0.00107497
3327 0.0027467
3330 0.00237852
3333 0.00385537
3336 0.00299293
3339 0.00379651
3342 0.00669446
3345 0.00981117
3348 0.00632029
3351 0.00391514
3354 0.00324089
3357 0.00548696
3360 0.00290571
3363 0.00368232
3366 0.00230071
3369 0.00171053
3372 0.00105423
3375 0.00344157
3378 0.0022308
3381 0.00422009
3384 0.00598353
3387 0.00327731
3390 0.00400834
3393 0.00375258
3396 0.0066935
3399 0.00456001
3402 0.00504739
3405 0.00235157
3408 0.00493224
3411 0.00270266
3414 0.0021023
3417 0.00671018
3420 0.00597045
3423 0.0031714
3426 0.00397458
3429 0.00440462
3432 0.00494107
3435 0.00921485
3438 0.00637531
3441 0.012583
3444 0.00804947
3447 0.0142454
3450 0.00674091
3453 0.0116097
3456 0.0092138
3459 0.0096758
3462 0.0171254
3465 0.0132173
3468 0.0113791
3471 0.00828735
3474 0.00739484
3477 0.011962
3480 0.0232271
3483 0.0201873
3486 0.0119235
3487 2.83954e-05