File: constrainednmf/example_data/BaTiO3_xrd_ramp/BTO_410K_tth.xy
0.000000000000000000e+00 0.000740806
3 0.000775976
6 0.000936406
9 0.00294891
12 0.0124907
15 0.0142222
18 0.0134134
21 0.0126638
24 0.0130334
27 0.0128986
30 0.0104661
33 0.00417674
36 0.00290096
39 0.00289198
42 0.00303002
45 0.0030003
48 0.00297315
51 0.00290072
54 0.00290123
57 0.00299196
60 0.00297653
63 0.00302288
66 0.00304904
69 0.00311736
72 0.00313393
75 0.00319027
78 0.00333734
81 0.00345149
84 0.00353381
87 0.00354354
90 0.00353803
93 0.00342887
96 0.00344373
99 0.00340245
102 0.00337944
105 0.00334674
108 0.00330656
111 0.00338642
114 0.00340109
117 0.00338764
120 0.00335518
123 0.00332761
126 0.0031546
129 0.00335526
132 0.00329407
135 0.00330762
138 0.00324929
141 0.00329339
144 0.00330196
147 0.00325234
150 0.00322447
153 0.00321137
156 0.00322032
159 0.00313902
162 0.00316551
165 0.00310292
168 0.00310873
171 0.00310062
174 0.00309688
177 0.00304608
180 0.0030578
183 0.00298495
186 0.00294108
189 0.00292767
192 0.00297769
195 0.00297951
198 0.00298446
201 0.00288535
204 0.00285401
207 0.00283099
210 0.00276877
213 0.00287894
216 0.00285248
219 0.00283454
222 0.00283386
225 0.00277833
228 0.00288117
231 0.00288334
234 0.00281081
237 0.00279298
240 0.00280529
243 0.00281572
246 0.00291105
249 0.00294461
252 0.00296554
255 0.00297986
258 0.00292352
261 0.00300938
264 0.00300577
267 0.00301702
270 0.00312479
273 0.00315521
276 0.00317525
279 0.00329835
282 0.00338886
285 0.00352556
288 0.00344263
291 0.0034051
294 0.0033277
297 0.00305751
300 0.00302786
303 0.00284546
306 0.0027067
309 0.00270328
312 0.00275243
315 0.0027973
318 0.00271629
321 0.00283509
324 0.00374634
327 0.00682501
330 0.0324123
333 0.113964
336 0.0559373
339 0.00799543
342 0.00338811
345 0.00245831
348 0.00217026
351 0.00197355
354 0.00203641
357 0.00329443
360 0.00472245
363 0.00361241
366 0.00234225
369 0.0016209
372 0.00134424
375 0.00129073
378 0.00121984
381 0.00136099
384 0.0013656
387 0.00128053
390 0.00129356
393 0.00131967
396 0.0012849
399 0.00124197
402 0.00128015
405 0.00134589
408 0.0014976
411 0.00159553
414 0.00186511
417 0.00158963
420 0.00153014
423 0.00170501
426 0.00185481
429 0.00168108
432 0.00164255
435 0.00166699
438 0.00179956
441 0.00215036
444 0.0024374
447 0.00285448
450 0.00337363
453 0.00407187
456 0.00521035
459 0.00681838
462 0.010351
465 0.0214524
468 0.0855839
471 0.700358
474 0.732433
477 0.0998893
480 0.0209021
483 0.00988466
486 0.00628677
489 0.00474776
492 0.00364066
495 0.00269363
498 0.00214171
501 0.00214254
504 0.00202605
507 0.00261323
510 0.00280749
513 0.00226962
516 0.00203742
519 0.00132584
522 0.000786775
525 0.000742806
528 0.000690205
531 0.000502853
534 0.000385834
537 0.000464627
540 0.000541032
543 0.000583859
546 0.000517037
549 0.000614664
552 0.000869975
555 0.000856395
558 0.00121181
561 0.00154219
564 0.0019143
567 0.0026239
570 0.00412415
573 0.0108166
576 0.0714293
579 0.379753
582 0.0949692
585 0.0123186
588 0.00464869
591 0.00287778
594 0.00213547
597 0.00160367
600 0.00132294
603 0.00102756
606 0.000802119
609 0.0010092
612 0.00100822
615 0.000910851
618 0.00102268
621 0.00154737
624 0.00248423
627 0.00200652
630 0.00194079
633 0.00195168
636 0.00194057
639 0.00193549
642 0.00192342
645 0.00226601
648 0.00276767
651 0.00412915
654 0.00582286
657 0.00935196
660 0.0184585
663 0.057948
666 0.184846
669 0.323044
672 0.248246
675 0.0406234
678 0.0128796
681 0.00663485
684 0.00467947
687 0.00404237
690 0.00396582
693 0.0029116
696 0.00185253
699 0.00158146
702 0.00153268
705 0.00137116
708 0.0011347
711 0.00122713
714 0.00113988
717 0.00113895
720 0.00119074
723 0.00138175
726 0.00122674
729 0.00146966
732 0.00183002
735 0.00255036
738 0.00420146
741 0.00965165
744 0.0384906
747 0.105376
750 0.117879
753 0.0238854
756 0.00593932
759 0.00284617
762 0.00209404
765 0.00134556
768 0.00148512
771 0.00147338
774 0.00132133
777 0.00122503
780 0.0013738
783 0.00169527
786 0.00189407
789 0.00224801
792 0.00248602
795 0.00282385
798 0.00336471
801 0.00428804
804 0.00605307
807 0.0086513
810 0.0155802
813 0.0390551
816 0.17087
819 0.54279
822 0.405684
825 0.063053
828 0.0180867
831 0.0091445
834 0.00599556
837 0.00442637
840 0.00364525
843 0.0026696
846 0.00224601
849 0.00206906
852 0.00154992
855 0.00169203
858 0.00151528
861 0.00161627
864 0.00120718
867 0.000871448
870 0.000942053
873 0.000766133
876 0.00104452
879 0.00126225
882 0.00118854
885 0.00106037
888 0.0010546
891 0.000923418
894 0.000912204
897 0.000466311
900 0.000917852
903 0.000867641
906 0.000479765
909 0.000755532
912 0.000838068
915 0.00129774
918 0.000824871
921 0.00126009
924 0.00149111
927 0.002111
930 0.00281584
933 0.00419289
936 0.00751333
939 0.0167874
942 0.0609772
945 0.280824
948 0.299294
951 0.0976423
954 0.0204459
957 0.00814779
960 0.00446447
963 0.00290591
966 0.00206669
969 0.00207336
972 0.0019536
975 0.00197847
978 0.00196172
981 0.00153067
984 0.00118051
987 0.00128687
990 0.00183228
993 0.00296482
996 0.00596472
999 0.0163311
1002 0.0591285
1005 0.104116
1008 0.0391303
1011 0.00800798
1014 0.00317707
1017 0.00192666
1020 0.00149255
1023 0.00120422
1026 0.00126125
1029 0.00141486
1032 0.00139972
1035 0.00194644
1038 0.00259561
1041 0.0038541
1044 0.00582864
1047 0.0105272
1050 0.0239819
1053 0.0739756
1056 0.132244
1059 0.201556
1062 0.209926
1065 0.047221
1068 0.0150504
1071 0.00723751
1074 0.00468412
1077 0.00310421
1080 0.00284349
1083 0.00242417
1086 0.00209897
1089 0.00220078
1092 0.00201365
1095 0.00301732
1098 0.0046267
1101 0.00894715
1104 0.024442
1107 0.0662488
1110 0.0978812
1113 0.131137
1116 0.0327335
1119 0.00864455
1122 0.00360631
1125 0.00227299
1128 0.00143001
1131 0.000786536
1134 0.00105054
1137 0.00101822
1140 0.00105254
1143 0.000958019
1146 0.00154889
1149 0.00250296
1152 0.00515597
1155 0.0153914
1158 0.0855352
1161 0.158782
1164 0.0296811
1167 0.00643353
1170 0.00277
1173 0.00157232
1176 0.00128236
1179 0.000840191
1182 0.000729572
1185 0.000815925
1188 0.000925093
1191 0.00130955
1194 0.00194374
1197 0.00270215
1200 0.0055796
1203 0.0172175
1206 0.0374033
1209 0.0447907
1212 0.0210204
1215 0.00542659
1218 0.00309725
1221 0.00256092
1224 0.00250579
1227 0.00230583
1230 0.00300613
1233 0.00372418
1236 0.00506433
1239 0.00743122
1242 0.0123323
1245 0.0257458
1248 0.0791503
1251 0.234637
1254 0.355504
1257 0.181352
1260 0.039435
1263 0.0147415
1266 0.00783524
1269 0.00534404
1272 0.00324132
1275 0.00234003
1278 0.00158131
1281 0.0013516
1284 0.00141841
1287 0.000993022
1290 0.000869646
1293 0.000734353
1296 0.000345466
1299 0.000485169
1302 0.00048031
1305 0.000509626
1308 0.000713428
1311 0.000592212
1314 0.000508167
1317 0.00055286
1320 0.000685147
1323 0.00095259
1326 0.00246672
1329 0.00458628
1332 0.0117555
1335 0.0193967
1338 0.0173028
1341 0.0329743
1344 0.0430292
1347 0.0122288
1350 0.00454958
1353 0.00256797
1356 0.00177446
1359 0.00152606
1362 0.00162026
1365 0.00195772
1368 0.00265827
1371 0.00504061
1374 0.0115694
1377 0.0232323
1380 0.045183
1383 0.0664931
1386 0.0312535
1389 0.00881487
1392 0.00397426
1395 0.00273982
1398 0.00295133
1401 0.00316555
1404 0.00422798
1407 0.00623193
1410 0.0103965
1413 0.0229787
1416 0.0543282
1419 0.0897733
1422 0.124894
1425 0.136752
1428 0.0420761
1431 0.0140519
1434 0.00758214
1437 0.00483528
1440 0.00382432
1443 0.00333248
1446 0.0032376
1449 0.00379322
1452 0.00574056
1455 0.0127145
1458 0.044195
1461 0.0642388
1464 0.0401962
1467 0.0123488
1470 0.00525452
1473 0.00388913
1476 0.00368888
1479 0.00373335
1482 0.00478634
1485 0.00667505
1488 0.0115927
1491 0.0266816
1494 0.0603422
1497 0.0724493
1500 0.122667
1503 0.0955267
1506 0.0278997
1509 0.0106609
1512 0.00621143
1515 0.00451727
1518 0.00381837
1521 0.00374706
1524 0.00476998
1527 0.00737229
1530 0.016823
1533 0.025801
1536 0.0365472
1539 0.0438232
1542 0.0149237
1545 0.005374
1548 0.00326315
1551 0.00238379
1554 0.00244412
1557 0.0031104
1560 0.0033349
1563 0.00572021
1566 0.0118155
1569 0.0407465
1572 0.107438
1575 0.0639592
1578 0.0152277
1581 0.00600492
1584 0.00321366
1587 0.00228783
1590 0.00209616
1593 0.0019719
1596 0.00201532
1599 0.00195996
1602 0.0015162
1605 0.00161895
1608 0.00145689
1611 0.00178161
1614 0.00157187
1617 0.00202658
1620 0.00236709
1623 0.00293012
1626 0.0036014
1629 0.00492202
1632 0.00785828
1635 0.0171214
1638 0.0443011
1641 0.069548
1644 0.112529
1647 0.0534416
1650 0.0147522
1653 0.00732083
1656 0.004983
1659 0.0039078
1662 0.00397294
1665 0.00453451
1668 0.00627018
1671 0.0105069
1674 0.0168051
1677 0.0203915
1680 0.0189052
1683 0.0103583
1686 0.00611493
1689 0.00592774
1692 0.00666208
1695 0.00944559
1698 0.0145755
1701 0.0292177
1704 0.0552297
1707 0.098395
1710 0.135965
1713 0.140737
1716 0.0665359
1719 0.0216258
1722 0.0116417
1725 0.00813355
1728 0.00720262
1731 0.00842798
1734 0.0119165
1737 0.0162991
1740 0.0188013
1743 0.0338798
1746 0.0362795
1749 0.0157428
1752 0.006096
1755 0.0035955
1758 0.00255675
1761 0.00178661
1764 0.00143391
1767 0.00144801
1770 0.00105793
1773 0.0011797
1776 0.00121928
1779 0.00124045
1782 0.00107596
1785 0.00112958
1788 0.00155198
1791 0.0020827
1794 0.00328376
1797 0.00643996
1800 0.0120716
1803 0.0229168
1806 0.0370751
1809 0.0385649
1812 0.016605
1815 0.00620311
1818 0.00521974
1821 0.00544193
1824 0.00753964
1827 0.0134399
1830 0.0293301
1833 0.0373279
1836 0.0372494
1839 0.0715285
1842 0.0668835
1845 0.0217533
1848 0.00825397
1851 0.00445431
1854 0.00302759
1857 0.00200643
1860 0.001753
1863 0.00144213
1866 0.000916053
1869 0.000966199
1872 0.000463281
1875 0.000654123
1878 0.000666709
1881 0.00123589
1884 0.00145677
1887 0.0021772
1890 0.00411792
1893 0.0117216
1896 0.0271018
1899 0.0219173
1902 0.017932
1905 0.00838024
1908 0.00349213
1911 0.00240817
1914 0.00201716
1917 0.00275292
1920 0.00511428
1923 0.0107089
1926 0.0165625
1929 0.0184479
1932 0.0152217
1935 0.00595024
1938 0.00347177
1941 0.00380003
1944 0.00494636
1947 0.00820181
1950 0.0179183
1953 0.034527
1956 0.0638168
1959 0.0669551
1962 0.0305675
1965 0.0119483
1968 0.00617551
1971 0.0051817
1974 0.00557771
1977 0.00885339
1980 0.0176415
1983 0.0219195
1986 0.0301773
1989 0.0313769
1992 0.0152227
1995 0.00627065
1998 0.00512291
2001 0.00547968
2004 0.00787687
2007 0.0128441
2010 0.0281122
2013 0.0542632
2016 0.0479893
2019 0.0297716
2022 0.0107836
2025 0.00541326
2028 0.00389389
2031 0.00420353
2034 0.0046149
2037 0.00407261
2040 0.00429953
2043 0.00587302
2046 0.00954137
2049 0.00693113
2052 0.00528156
2055 0.00660392
2058 0.011167
2061 0.0193553
2064 0.0325023
2067 0.0405738
2070 0.060776
2073 0.0720368
2076 0.0327438
2079 0.0115298
2082 0.00635642
2085 0.00404334
2088 0.00278615
2091 0.00192109
2094 0.00169951
2097 0.00190241
2100 0.00129268
2103 0.00213135
2106 0.00232358
2109 0.00366069
2112 0.00684853
2115 0.0117712
2118 0.012586
2121 0.0107319
2124 0.0175391
2127 0.0320112
2130 0.0222132
2133 0.00863032
2136 0.00584467
2139 0.00597922
2142 0.00878327
2145 0.0112043
2148 0.0178194
2151 0.0229852
2154 0.0212119
2157 0.0116003
2160 0.00583062
2163 0.00472232
2166 0.00588066
2169 0.0113462
2172 0.0255438
2175 0.0378022
2178 0.0341188
2181 0.0274898
2184 0.0130829
2187 0.00533503
2190 0.00332347
2193 0.00291707
2196 0.00469021
2199 0.00829768
2202 0.0121553
2205 0.0145696
2208 0.00541061
2211 0.00292157
2214 0.00321355
2217 0.00557166
2220 0.0101482
2223 0.0112206
2226 0.00993891
2229 0.0186061
2232 0.0282837
2235 0.0131708
2238 0.00551631
2241 0.00371211
2244 0.00491807
2247 0.00691754
2250 0.0109071
2253 0.0145799
2256 0.0146738
2259 0.0101346
2262 0.00473595
2265 0.00456637
2268 0.00714916
2271 0.0134742
2274 0.0147002
2277 0.0152459
2280 0.0279636
2283 0.0290234
2286 0.013292
2289 0.00448507
2292 0.00243628
2295 0.00173668
2298 0.00105203
2301 0.000482475
2304 0.000350655
2307 0.000486257
2310 0.000771914
2313 0.000954273
2316 0.000800787
2319 0.00121214
2322 0.00203519
2325 0.00601597
2328 0.0129461
2331 0.00705489
2334 0.00284362
2337 0.00188274
2340 0.00237906
2343 0.00391774
2346 0.00564868
2349 0.00583643
2352 0.0074409
2355 0.0115417
2358 0.00951499
2361 0.00667992
2364 0.00775365
2367 0.0110127
2370 0.0163609
2373 0.0307152
2376 0.044879
2379 0.0446721
2382 0.0291332
2385 0.014096
2388 0.0092431
2391 0.0081491
2394 0.00821047
2397 0.0119077
2400 0.0121271
2403 0.0127617
2406 0.0133212
2409 0.00769499
2412 0.00557429
2415 0.00770374
2418 0.0112922
2421 0.0126653
2424 0.0163031
2427 0.015846
2430 0.0135804
2433 0.00760875
2436 0.00642562
2439 0.00668802
2442 0.00844637
2445 0.00886731
2448 0.0106068
2451 0.0117021
2454 0.0107314
2457 0.0102471
2460 0.0129896
2463 0.0171847
2466 0.021883
2469 0.0281205
2472 0.0361474
2475 0.0407724
2478 0.0213024
2481 0.00899516
2484 0.0052384
2487 0.00444703
2490 0.00433258
2493 0.0034366
2496 0.00346521
2499 0.00378625
2502 0.00383571
2505 0.00578293
2508 0.00958944
2511 0.0173649
2514 0.0212737
2517 0.029128
2520 0.0276235
2523 0.0156986
2526 0.00703393
2529 0.00510486
2532 0.00504457
2535 0.00570757
2538 0.00765158
2541 0.00841675
2544 0.00640184
2547 0.00416027
2550 0.00485019
2553 0.00563677
2556 0.00512767
2559 0.00462015
2562 0.00715134
2565 0.0104077
2568 0.00841464
2571 0.00671131
2574 0.00681029
2577 0.00709903
2580 0.00925425
2583 0.0126116
2586 0.0148739
2589 0.0117778
2592 0.00581523
2595 0.00289826
2598 0.00164879
2601 0.00186038
2604 0.00194123
2607 0.00139193
2610 0.0013006
2613 0.001936
2616 0.00218362
2619 0.00382336
2622 0.00606194
2625 0.00777852
2628 0.00911265
2631 0.00873926
2634 0.00668506
2637 0.00728773
2640 0.0109128
2643 0.0160358
2646 0.0207349
2649 0.0234599
2652 0.0261346
2655 0.0210548
2658 0.00880893
2661 0.00352129
2664 0.00298789
2667 0.000993171
2670 0.00176043
2673 0.00141487
2676 0.00166023
2679 0.00154752
2682 0.00111505
2685 0.00103886
2688 0.000911147
2691 0.00155629
2694 0.00166432
2697 0.00389362
2700 0.00380365
2703 0.00426691
2706 0.00489266
2709 0.00636901
2712 0.007214
2715 0.00846691
2718 0.00914717
2721 0.00818099
2724 0.00954536
2727 0.0109415
2730 0.012889
2733 0.020006
2736 0.0240582
2739 0.0204101
2742 0.0125611
2745 0.006489
2748 0.00482974
2751 0.0040533
2754 0.00462299
2757 0.00646294
2760 0.0056937
2763 0.00522637
2766 0.00547871
2769 0.00686976
2772 0.00888956
2775 0.0133981
2778 0.0177025
2781 0.0143868
2784 0.00935591
2787 0.00566626
2790 0.0049345
2793 0.00406122
2796 0.00443613
2799 0.00720613
2802 0.00662601
2805 0.00474366
2808 0.00399628
2811 0.00698259
2814 0.012486
2817 0.0128997
2820 0.009635
2823 0.00473298
2826 0.00219612
2829 0.000909223
2832 0.000246215
2835 0.00142347
2838 0.00122218
2841 0.00164027
2844 0.00278117
2847 0.00383488
2850 0.00476043
2853 0.00515661
2856 0.00648323
2859 0.00737362
2862 0.00979897
2865 0.00716314
2868 0.00408184
2871 0.00361224
2874 0.00399149
2877 0.00357092
2880 0.00556705
2883 0.00687211
2886 0.00899017
2889 0.0114367
2892 0.0119746
2895 0.0125008
2898 0.0195042
2901 0.0220642
2904 0.0158593
2907 0.00850302
2910 0.00659433
2913 0.00642779
2916 0.0082233
2919 0.00721111
2922 0.00619352
2925 0.00361822
2928 0.00301365
2931 0.00577928
2934 0.00727191
2937 0.00594065
2940 0.00573969
2943 0.00526056
2946 0.00404321
2949 0.00364286
2952 0.00399649
2955 0.00545108
2958 0.00617566
2961 0.00517212
2964 0.00392358
2967 0.00528911
2970 0.00538194
2973 0.0069861
2976 0.00756765
2979 0.00673397
2982 0.00421515
2985 0.00271153
2988 0.00229494
2991 0.00114305
2994 0.000960124
2997 0.000606718
3000 0.00308848
3003 0.0031016
3006 0.00283343
3009 0.00238191
3012 0.00302566
3015 0.00587223
3018 0.0066695
3021 0.00593103
3024 0.0040769
3027 0.00640205
3030 0.00492557
3033 0.00708724
3036 0.00790792
3039 0.00651092
3042 0.00499358
3045 0.00414203
3048 0.00442177
3051 0.00518478
3054 0.00839578
3057 0.0096683
3060 0.00690836
3063 0.00647066
3066 0.0059989
3069 0.00766313
3072 0.00907454
3075 0.00984706
3078 0.00764488
3081 0.00688516
3084 0.00771486
3087 0.00682301
3090 0.0110064
3093 0.011972
3096 0.00912057
3099 0.0057573
3102 0.00603737
3105 0.00600002
3108 0.00438892
3111 0.00682188
3114 0.00801758
3117 0.00665301
3120 0.0107994
3123 0.0129043
3126 0.0139662
3129 0.0134484
3132 0.0124166
3135 0.00905293
3138 0.00702007
3141 0.00475119
3144 0.00409483
3147 0.00327233
3150 0.00580014
3153 0.00318918
3156 0.00457584
3159 0.00718474
3162 0.00879072
3165 0.00779563
3168 0.00624503
3171 0.00642565
3174 0.00656185
3177 0.00592443
3180 0.00780542
3183 0.00835967
3186 0.0101155
3189 0.00900708
3192 0.0105451
3195 0.0111147
3198 0.0140759
3201 0.0169871
3204 0.0133989
3207 0.0103697
3210 0.0058067
3213 0.00575442
3216 0.00507488
3219 0.00557533
3222 0.00643454
3225 0.00511774
3228 0.00386021
3231 0.00124748
3234 0.00123441
3237 0.00245458
3240 0.00213127
3243 0.00266161
3246 0.00277692
3249 0.00307813
3252 0.00415494
3255 0.00537631
3258 0.00572309
3261 0.00483381
3264 0.00647339
3267 0.00803518
3270 0.0100532
3273 0.00831582
3276 0.00888643
3279 0.00598432
3282 0.00268576
3285 0.000791827
3288 0.00416834
3291 0.00157494
3294 0.000955222
3297 0.00205311
3300 0.0025831
3303 0.00443437
3306 0.00337314
3309 0.0046876
3312 0.00464345
3315 0.00252051
3318 0.001727
3321 0.00288112
3324 0.00452525
3327 0.00632738
3330 0.00478944
3333 0.00580833
3336 0.00616609
3339 0.00710684
3342 0.00765591
3345 0.0112074
3348 0.00791412
3351 0.00681856
3354 0.00788855
3357 0.00539991
3360 0.00682786
3363 0.00557763
3366 0.00581565
3369 0.0046895
3372 0.00730364
3375 0.00499457
3378 0.00662481
3381 0.00529041
3384 0.00559171
3387 0.00574459
3390 0.00561156
3393 0.00731446
3396 0.00339327
3399 0.00766084
3402 0.00701648
3405 0.00626818
3408 0.00467982
3411 0.00517776
3414 0.00679242
3417 0.0072317
3420 0.00722415
3423 0.0041851
3426 0.00147594
3429 0.00678515
3432 0.00374885
3435 0.0086321
3438 0.0104925
3441 0.0112405
3444 0.0103335
3447 0.0129079
3450 0.0133893
3453 0.0122145
3456 0.0119279
3459 0.0121162
3462 0.00852162
3465 0.0117725
3468 0.0182708
3471 0.0139091
3474 0.0108161
3477 0.0134158
3480 0.0166557
3483 0.0150797
3486 0.0253035
3487 0.000397643