File: constrainednmf/example_data/BaTiO3_xrd_ramp/BTO_215K_tth.xy
0.000000000000000000e+00 0.000112894
3 0.000230056
6 0.000468098
9 0.00223167
12 0.00969995
15 0.0117891
18 0.0112481
21 0.0106968
24 0.0110487
27 0.0110691
30 0.00902097
33 0.00373501
36 0.00270825
39 0.00277579
42 0.00289697
45 0.00291908
48 0.00296801
51 0.00295633
54 0.00295083
57 0.00299194
60 0.00304879
63 0.00308738
66 0.00305542
69 0.00312139
72 0.00314706
75 0.00325395
78 0.00331901
81 0.00346753
84 0.00353175
87 0.00352711
90 0.00346311
93 0.00343945
96 0.00338208
99 0.00336876
102 0.00327923
105 0.0032571
108 0.00327105
111 0.00326674
114 0.00325128
117 0.00318762
120 0.00319745
123 0.00316127
126 0.00302027
129 0.00309019
132 0.00310292
135 0.00302473
138 0.00299313
141 0.00299858
144 0.00298787
147 0.00291873
150 0.00284124
153 0.00279242
156 0.00281765
159 0.00276098
162 0.0027897
165 0.00267924
168 0.00261602
171 0.00262914
174 0.00261495
177 0.00256888
180 0.00247787
183 0.00250847
186 0.00243152
189 0.00234581
192 0.00229926
195 0.00231747
198 0.00225273
201 0.00225105
204 0.00219277
207 0.00220841
210 0.0021513
213 0.00213959
216 0.00211713
219 0.00205581
222 0.00205777
225 0.00205931
228 0.00206849
231 0.00206955
234 0.00206817
237 0.00202214
240 0.00210147
243 0.00205325
246 0.00210602
249 0.00211839
252 0.00207398
255 0.00208077
258 0.00210537
261 0.0020904
264 0.00215711
267 0.00215261
270 0.00217325
273 0.00219605
276 0.00227557
279 0.00229433
282 0.00246526
285 0.00248055
288 0.00253537
291 0.00251318
294 0.0026245
297 0.00241781
300 0.00231355
303 0.00212337
306 0.00196125
309 0.00200265
312 0.00204297
315 0.00211239
318 0.0021144
321 0.00230729
324 0.00291354
327 0.00544752
330 0.026224
333 0.109475
336 0.0660666
339 0.01028
342 0.00351539
345 0.00206749
348 0.0016327
351 0.00141476
354 0.00142008
357 0.00215444
360 0.00424438
363 0.00365641
366 0.00226816
369 0.00115828
372 0.000954292
375 0.00084915
378 0.000784779
381 0.000823613
384 0.000915468
387 0.000914628
390 0.000813436
393 0.000793241
396 0.000865717
399 0.000803314
402 0.000866527
405 0.000875529
408 0.00104332
411 0.00114844
414 0.00133619
417 0.00139707
420 0.00130081
423 0.00137687
426 0.00152941
429 0.00121723
432 0.00126232
435 0.00143359
438 0.00156505
441 0.00179396
444 0.00216543
447 0.00245686
450 0.00297951
453 0.0036181
456 0.00455447
459 0.00609777
462 0.00927567
465 0.0186639
468 0.0757286
471 0.540915
474 0.878783
477 0.137053
480 0.0242891
483 0.0102542
486 0.00628298
489 0.00446374
492 0.00317014
495 0.00234054
498 0.00183079
501 0.00163029
504 0.00163191
507 0.00181277
510 0.00235215
513 0.0022888
516 0.00189066
519 0.000926587
522 0.000441761
525 0.000390561
528 0.000279216
531 0.000196788
534 0.000226254
537 0.000257556
540 0.000160598
543 0.000332156
546 0.000313056
549 0.000344821
552 0.000479528
555 0.000451508
558 0.000615535
561 0.00102689
564 0.00141059
567 0.00211787
570 0.00350277
573 0.0088662
576 0.0529672
579 0.336076
582 0.150661
585 0.0162827
588 0.00496927
591 0.00290983
594 0.0021737
597 0.00137272
600 0.000950986
603 0.000751302
606 0.000404266
609 0.000439045
612 0.000524797
615 0.000597444
618 0.000638067
621 0.00104393
624 0.00191658
627 0.00177634
630 0.00145383
633 0.0013999
636 0.00146276
639 0.00134288
642 0.00142131
645 0.0016109
648 0.00202457
651 0.003064
654 0.00441756
657 0.00746827
660 0.01442
663 0.0415184
666 0.18884
669 0.310576
672 0.22141
675 0.0996498
678 0.0192513
681 0.00736398
684 0.00433999
687 0.00311754
690 0.00297549
693 0.00305658
696 0.00220865
699 0.00133536
702 0.000876185
705 0.000790932
708 0.000771743
711 0.000645258
714 0.000489608
717 0.000582042
720 0.000665132
723 0.00082989
726 0.000649148
729 0.000793481
732 0.00106645
735 0.00177035
738 0.00313573
741 0.00756775
744 0.03153
747 0.105745
750 0.103651
753 0.0482524
756 0.0088929
759 0.00275759
762 0.00144866
765 0.00110526
768 0.000913514
771 0.000625531
774 0.000837406
777 0.000879517
780 0.000703906
783 0.000987893
786 0.0011772
789 0.00127439
792 0.00159939
795 0.00204322
798 0.00252541
801 0.00360982
804 0.00481329
807 0.00708871
810 0.0123256
813 0.0302773
816 0.134737
819 0.480932
822 0.478154
825 0.134432
828 0.0260924
831 0.010126
834 0.0061794
837 0.00427098
840 0.0026816
843 0.00221442
846 0.00169518
849 0.00147622
852 0.000993307
855 0.000895889
858 0.000844868
861 0.000925151
864 0.000848076
867 0.000496305
870 0.000568847
873 0.0005861
876 0.000337276
879 0.000645808
882 0.000668501
885 0.000536491
888 0.000756535
891 0.000472686
894 0.000523814
897 0.000390111
900 0.000241037
903 0.000260025
906 0.00027953
909 9.21947e-05
912 0.000346742
915 0.000368839
918 0.000844453
921 0.000727274
924 0.00115208
927 0.00176885
930 0.00231989
933 0.00340187
936 0.00624713
939 0.0152907
942 0.0625407
945 0.174135
948 0.33918
951 0.173057
954 0.0315627
957 0.0102708
960 0.00516127
963 0.00306791
966 0.00213136
969 0.00154336
972 0.00136627
975 0.0012935
978 0.001739
981 0.00143287
984 0.00144939
987 0.00141978
990 0.00157423
993 0.00242678
996 0.00445456
999 0.0136937
1002 0.0503711
1005 0.0969322
1008 0.0601875
1011 0.0171474
1014 0.00499064
1017 0.00214791
1020 0.00144408
1023 0.00115275
1026 0.000989223
1029 0.00102901
1032 0.00142126
1035 0.00157619
1038 0.00218175
1041 0.0029842
1044 0.00474909
1047 0.00824534
1050 0.0175598
1053 0.0529079
1056 0.163062
1059 0.201679
1062 0.136762
1065 0.131453
1068 0.0369574
1071 0.0109383
1074 0.00546231
1077 0.00372999
1080 0.00265878
1083 0.00210566
1086 0.00210991
1089 0.00195892
1092 0.00236515
1095 0.00268698
1098 0.00383984
1101 0.00682072
1104 0.0173769
1107 0.0626758
1110 0.113868
1113 0.0869163
1116 0.0758075
1119 0.0237897
1122 0.00617736
1125 0.00297272
1128 0.00184481
1131 0.00116427
1134 0.000875845
1137 0.000730837
1140 0.000924308
1143 0.00114813
1146 0.00135892
1149 0.00209159
1152 0.00406494
1155 0.0113482
1158 0.0586712
1161 0.146527
1164 0.0800552
1167 0.0126048
1170 0.00379479
1173 0.00190382
1176 0.00124832
1179 0.000951832
1182 0.000673271
1185 0.00065931
1188 0.00060411
1191 0.000854575
1194 0.00137062
1197 0.00238227
1200 0.00507257
1203 0.0159083
1206 0.0303641
1209 0.0417876
1212 0.0336212
1215 0.0119821
1218 0.00363339
1221 0.00223594
1224 0.00192436
1227 0.00200114
1230 0.00245664
1233 0.0035782
1236 0.00406167
1239 0.00624351
1242 0.0100659
1245 0.021536
1248 0.0700766
1251 0.188331
1254 0.314461
1257 0.272721
1260 0.107447
1263 0.0254355
1266 0.0103379
1269 0.00551509
1272 0.00367786
1275 0.00253873
1278 0.00153467
1281 0.00125257
1284 0.000790032
1287 0.000680645
1290 0.000297931
1293 0.000368551
1296 0.000568948
1299 0.000322372
1302 0.000306894
1305 0.000400142
1308 0.000425293
1311 0.000375777
1314 0.000519242
1317 0.000284977
1320 0.000719964
1323 0.000778003
1326 0.00154769
1329 0.0029439
1332 0.00672349
1335 0.0197368
1338 0.0368189
1341 0.0265004
1344 0.0178741
1347 0.0223367
1350 0.0191867
1353 0.00516866
1356 0.00224016
1359 0.00147509
1362 0.00143946
1365 0.00154175
1368 0.00207149
1371 0.00370856
1374 0.00813393
1377 0.0238275
1380 0.0503028
1383 0.0551334
1386 0.0376317
1389 0.0220279
1392 0.0101988
1395 0.0037185
1398 0.00242458
1401 0.00222906
1404 0.00304725
1407 0.00447009
1410 0.00773647
1413 0.0168081
1416 0.048079
1419 0.0991169
1422 0.120735
1425 0.109501
1428 0.0789426
1431 0.0473759
1434 0.0136269
1437 0.00617083
1440 0.00395022
1443 0.0031347
1446 0.00281203
1449 0.00304943
1452 0.00527619
1455 0.0143929
1458 0.0276343
1461 0.0510756
1464 0.0654293
1467 0.025853
1470 0.00704545
1473 0.00326037
1476 0.00269445
1479 0.00291682
1482 0.00344598
1485 0.00478599
1488 0.0085049
1491 0.0200241
1494 0.0513491
1497 0.0931536
1500 0.100997
1503 0.0751324
1506 0.0781302
1509 0.0307421
1512 0.00982359
1515 0.00514538
1518 0.00371069
1521 0.00303901
1524 0.00361855
1527 0.00559467
1530 0.0135291
1533 0.0289647
1536 0.0391614
1539 0.03021
1542 0.0286694
1545 0.0158986
1548 0.00440245
1551 0.00240718
1554 0.00166013
1557 0.00179191
1560 0.00233439
1563 0.004188
1566 0.00977639
1569 0.0329351
1572 0.0711976
1575 0.100554
1578 0.0458066
1581 0.0102166
1584 0.00407571
1587 0.00227065
1590 0.00147922
1593 0.0010438
1596 0.000795956
1599 0.000991499
1602 0.000834399
1605 0.000521232
1608 0.000603016
1611 0.000752915
1614 0.000730187
1617 0.000803981
1620 0.00117885
1623 0.00134251
1626 0.00203439
1629 0.00323284
1632 0.00541478
1635 0.0124033
1638 0.0363343
1641 0.071959
1644 0.088083
1647 0.0760048
1650 0.0509364
1653 0.0148205
1656 0.00613096
1659 0.00445346
1662 0.00336294
1665 0.00323124
1668 0.00539032
1671 0.010068
1674 0.0136284
1677 0.0183067
1680 0.0185649
1683 0.014959
1686 0.00798374
1689 0.00575436
1692 0.00548841
1695 0.00703758
1698 0.0111725
1701 0.0229918
1704 0.0586875
1707 0.0966357
1710 0.130358
1713 0.132488
1716 0.103176
1719 0.0579367
1722 0.0318876
1725 0.0128263
1728 0.00764479
1731 0.00676991
1734 0.00846989
1737 0.0169958
1740 0.0296948
1743 0.0322002
1746 0.0266352
1749 0.0163116
1752 0.0169964
1755 0.0103151
1758 0.00309965
1761 0.001815
1764 0.00102127
1767 0.000787919
1770 0.000632775
1773 0.000623039
1776 0.000749118
1779 0.000355727
1782 0.000287166
1785 0.00060803
1788 0.000876923
1791 0.00140746
1794 0.00205011
1797 0.00463839
1800 0.0114551
1803 0.0232545
1806 0.0336972
1809 0.0372188
1812 0.0278015
1815 0.0159354
1818 0.00863856
1821 0.00536498
1824 0.00608387
1827 0.0101974
1830 0.0225212
1833 0.0468965
1836 0.0666445
1839 0.056972
1842 0.0406584
1845 0.0456405
1848 0.0399016
1851 0.0130774
1854 0.00507301
1857 0.0027776
1860 0.00172347
1863 0.00131711
1866 0.00105438
1869 0.000739894
1872 0.000606583
1875 0.000000000000000000e+00
1878 0.00026496
1881 0.000871979
1884 0.00129569
1887 0.00199847
1890 0.00629272
1893 0.00932604
1896 0.0135208
1899 0.0231396
1902 0.0311102
1905 0.0188266
1908 0.00637596
1911 0.00337098
1914 0.0026412
1917 0.00304509
1920 0.00605317
1923 0.0108373
1926 0.0147152
1929 0.0185826
1932 0.0185164
1935 0.0134665
1938 0.00767609
1941 0.00443757
1944 0.00469782
1947 0.00819363
1950 0.0165536
1953 0.0317667
1956 0.0555304
1959 0.0690608
1962 0.0568638
1965 0.0339326
1968 0.0155693
1971 0.00752336
1974 0.00646257
1977 0.00994061
1980 0.0171284
1983 0.0235363
1986 0.0317278
1989 0.0271072
1992 0.0251607
1995 0.0203676
1998 0.00877498
2001 0.00618572
2004 0.00751278
2007 0.0151972
2010 0.0268889
2013 0.0369731
2016 0.0569682
2019 0.0516958
2022 0.0237351
2025 0.0118724
2028 0.00904204
2031 0.00551085
2034 0.0055537
2037 0.00807812
2040 0.00841471
2043 0.00612953
2046 0.00524589
2049 0.00489771
2052 0.00660035
2055 0.00885032
2058 0.00996184
2061 0.0174031
2064 0.0374196
2067 0.0562972
2070 0.0637373
2073 0.0563854
2076 0.0497387
2079 0.037127
2082 0.0233824
2085 0.010867
2088 0.00493361
2091 0.00328156
2094 0.00247619
2097 0.00203293
2100 0.00212517
2103 0.00174969
2106 0.00196463
2109 0.00304698
2112 0.0049577
2115 0.00940735
2118 0.0175426
2121 0.0255068
2124 0.0232069
2127 0.0164705
2130 0.014147
2133 0.0173794
2136 0.0204419
2139 0.0122161
2142 0.0106105
2145 0.0154984
2148 0.0209245
2151 0.0237185
2154 0.0222112
2157 0.0169059
2160 0.0124902
2163 0.0104952
2166 0.00941947
2169 0.0153078
2172 0.0182602
2175 0.0273899
2178 0.040631
2181 0.0432526
2184 0.0336771
2187 0.0146097
2190 0.00611375
2193 0.00385906
2196 0.00556734
2199 0.00928604
2202 0.0114699
2205 0.0133344
2208 0.0116387
2211 0.00779632
2214 0.00432257
2217 0.00495354
2220 0.00808364
2223 0.0155781
2226 0.0209135
2229 0.0202531
2232 0.0151993
2235 0.0137098
2238 0.0176489
2241 0.014026
2244 0.00780247
2247 0.00933041
2250 0.0108615
2253 0.0140931
2256 0.0161205
2259 0.0145186
2262 0.010964
2265 0.00797749
2268 0.00751247
2271 0.0126005
2274 0.0189062
2277 0.0265375
2280 0.026775
2283 0.0190765
2286 0.0180933
2289 0.0216073
2292 0.0123533
2295 0.00404585
2298 0.00171219
2301 0.000870762
2304 0.000401122
2307 0.000463929
2310 0.000197362
2313 0.000245887
2316 6.1079e-05
2319 0.00049595
2322 0.00135046
2325 0.00414619
2328 0.0081159
2331 0.0101802
2334 0.00932842
2337 0.00308817
2340 0.00211857
2343 0.00353825
2346 0.00624092
2349 0.00789261
2352 0.00915149
2355 0.0085981
2358 0.00769483
2361 0.00917429
2364 0.0100209
2367 0.0123301
2370 0.0213442
2373 0.032569
2376 0.0403244
2379 0.050472
2382 0.0483058
2385 0.0285706
2388 0.0163953
2391 0.0166149
2394 0.0151914
2397 0.013191
2400 0.0131471
2403 0.0132884
2406 0.0131298
2409 0.00967903
2412 0.00863871
2415 0.0107942
2418 0.0103135
2421 0.0117741
2424 0.0163208
2427 0.0172281
2430 0.0149751
2433 0.0155673
2436 0.0112693
2439 0.0086091
2442 0.00899492
2445 0.0099192
2448 0.0115273
2451 0.0105593
2454 0.0101352
2457 0.0118482
2460 0.0143283
2463 0.0219591
2466 0.0313693
2469 0.0359227
2472 0.0386246
2475 0.0355164
2478 0.0294973
2481 0.0225021
2484 0.0188062
2487 0.0119047
2490 0.00539793
2493 0.00312658
2496 0.00250048
2499 0.00204579
2502 0.00293793
2505 0.0045219
2508 0.00909096
2511 0.0137844
2514 0.0199128
2517 0.0289382
2520 0.0293093
2523 0.0266315
2526 0.0226324
2529 0.0117488
2532 0.00692285
2535 0.00700984
2538 0.00811963
2541 0.00729717
2544 0.00703175
2547 0.00507537
2550 0.00434255
2553 0.00625994
2556 0.00725459
2559 0.00891875
2562 0.00843482
2565 0.00651187
2568 0.00581026
2571 0.00735891
2574 0.0109968
2577 0.0118586
2580 0.0133868
2583 0.0142345
2586 0.014811
2589 0.0116656
2592 0.00846983
2595 0.00754465
2598 0.0058014
2601 0.00222411
2604 0.00119461
2607 0.000596849
2610 0.000660948
2613 0.000617219
2616 0.0017817
2619 0.00309842
2622 0.00517224
2625 0.00712736
2628 0.00834698
2631 0.0101501
2634 0.00975416
2637 0.0113061
2640 0.0134577
2643 0.017258
2646 0.0217416
2649 0.0281424
2652 0.0287219
2655 0.0267864
2658 0.0224334
2661 0.0171535
2664 0.00938238
2667 0.0031809
2670 0.00202576
2673 0.000909522
2676 0.0009709
2679 7.14062e-05
2682 0.00132019
2685 0.0014734
2688 0.00221427
2691 0.00201956
2694 0.00128354
2697 0.0018921
2700 0.00227755
2703 0.00480131
2706 0.00710179
2709 0.00824134
2712 0.00857712
2715 0.00942362
2718 0.00971711
2721 0.0106396
2724 0.0125045
2727 0.0158595
2730 0.0206856
2733 0.02575
2736 0.0257928
2739 0.0235334
2742 0.0175718
2745 0.0155477
2748 0.0133959
2751 0.0103925
2754 0.00793728
2757 0.00610843
2760 0.0054001
2763 0.00531443
2766 0.00791124
2769 0.0112643
2772 0.0143012
2775 0.0150901
2778 0.0169019
2781 0.0161898
2784 0.013574
2787 0.0112866
2790 0.0124467
2793 0.0126966
2796 0.00953382
2799 0.00661338
2802 0.00528174
2805 0.00654859
2808 0.00726197
2811 0.0092697
2814 0.0106024
2817 0.0127878
2820 0.0158051
2823 0.0147166
2826 0.00934485
2829 0.00340763
2832 0.00093745
2835 0.000542857
2838 0.000644632
2841 0.000631004
2844 0.00169812
2847 0.00369154
2850 0.00590987
2853 0.00762603
2856 0.00910802
2859 0.00834052
2862 0.00885825
2865 0.00940751
2868 0.0080775
2871 0.00790529
2874 0.00799335
2877 0.00613215
2880 0.00620763
2883 0.00751939
2886 0.00933833
2889 0.0140582
2892 0.0194421
2895 0.0226311
2898 0.023406
2901 0.0213722
2904 0.0189186
2907 0.0194137
2910 0.0182875
2913 0.0137151
2916 0.0110603
2919 0.00986586
2922 0.00830142
2925 0.00816772
2928 0.00744134
2931 0.00549699
2934 0.00428055
2937 0.00696761
2940 0.00971997
2943 0.00994725
2946 0.00849625
2949 0.00549317
2952 0.00652193
2955 0.00692748
2958 0.00632228
2961 0.00682674
2964 0.00607399
2967 0.00676814
2970 0.00591316
2973 0.00751157
2976 0.00999245
2979 0.0090163
2982 0.00869268
2985 0.00801834
2988 0.00503624
2991 0.0019046
2994 0.000397377
2997 0.000799417
3000 0.00104443
3003 0.00212397
3006 0.0020745
3009 0.00342467
3012 0.00510969
3015 0.00553563
3018 0.00368668
3021 0.00488769
3024 0.0060924
3027 0.00846081
3030 0.0084478
3033 0.00654508
3036 0.0061444
3039 0.00738399
3042 0.00815617
3045 0.00916882
3048 0.00943686
3051 0.00751323
3054 0.00619123
3057 0.00549266
3060 0.00674651
3063 0.00921831
3066 0.0104007
3069 0.0103673
3072 0.00915197
3075 0.00893042
3078 0.00821751
3081 0.00844865
3084 0.00818934
3087 0.0101536
3090 0.0103405
3093 0.00845401
3096 0.00763662
3099 0.00816073
3102 0.00918077
3105 0.00886144
3108 0.00620764
3111 0.00611426
3114 0.00731907
3117 0.0104162
3120 0.010228
3123 0.0136757
3126 0.0153799
3129 0.0162363
3132 0.0167621
3135 0.0139828
3138 0.00683868
3141 0.00595111
3144 0.00498964
3147 0.00346539
3150 0.00146784
3153 0.00175907
3156 0.00295793
3159 0.00257338
3162 0.00429367
3165 0.00731528
3168 0.00862786
3171 0.0101112
3174 0.00679127
3177 0.00661496
3180 0.00503205
3183 0.00793263
3186 0.00807939
3189 0.00982712
3192 0.0115133
3195 0.0141306
3198 0.0150937
3201 0.0155129
3204 0.0152823
3207 0.0132239
3210 0.0121196
3213 0.0103549
3216 0.00638561
3219 0.00493634
3222 0.00241217
3225 0.00189296
3228 0.00112333
3231 0.00294756
3234 0.00177674
3237 0.00145549
3240 0.000764176
3243 0.00121598
3246 8.64965e-05
3249 0.00180764
3252 0.0015396
3255 0.00155169
3258 0.00292577
3261 0.0052027
3264 0.00821529
3267 0.00797784
3270 0.00844181
3273 0.0081068
3276 0.0108505
3279 0.00727849
3282 0.00599445
3285 0.00452038
3288 0.00456145
3291 0.00195753
3294 0.000378813
3297 0.00176964
3300 0.00215267
3303 0.0013755
3306 0.00189505
3309 0.00303506
3312 0.0043704
3315 0.00386513
3318 0.00409383
3321 0.00439552
3324 0.00255402
3327 0.00327947
3330 0.00646389
3333 0.00426955
3336 0.00836994
3339 0.00997476
3342 0.00994904
3345 0.00920776
3348 0.00906119
3351 0.0107537
3354 0.00991263
3357 0.0104553
3360 0.0059591
3363 0.00630086
3366 0.00558697
3369 0.00542476
3372 0.00522119
3375 0.00539357
3378 0.00656968
3381 0.00528898
3384 0.00903668
3387 0.0060285
3390 0.00797204
3393 0.00735594
3396 0.00935399
3399 0.00671888
3402 0.0102702
3405 0.00498791
3408 0.00679921
3411 0.00390293
3414 0.0060725
3417 0.00500852
3420 0.00211573
3423 0.00233938
3426 0.00524136
3429 0.00735662
3432 0.00514039
3435 0.00674256
3438 0.00774748
3441 0.0110599
3444 0.00828723
3447 0.00838564
3450 0.00211831
3453 0.011073
3456 0.00801153
3459 0.00570407
3462 0.00983709
3465 0.00790012
3468 0.00640354
3471 0.0115253
3474 0.00374885
3477 0.0056827
3480 0.00773218
3483 0.00658613
3486 0.0239158
3487 0.000730104