File: constrainednmf/example_data/BaTiO3_xrd_ramp/BTO_435K_tth.xy
0.000000000000000000e+00 0.000137872
3 0.000290049
6 0.000567342
9 0.00262889
12 0.0120915
15 0.0137996
18 0.0131063
21 0.0124017
24 0.0128686
27 0.0128226
30 0.0104626
33 0.00433954
36 0.00317822
39 0.00315709
42 0.00331721
45 0.0033396
48 0.00333197
51 0.00330085
54 0.00329601
57 0.00330647
60 0.00336268
63 0.00334452
66 0.0034292
69 0.00339903
72 0.00345144
75 0.00351644
78 0.00357439
81 0.00375326
84 0.00375897
87 0.00378687
90 0.0037354
93 0.00368122
96 0.00357768
99 0.0035373
102 0.00346194
105 0.00344422
108 0.0034348
111 0.00339701
114 0.00339835
117 0.00337107
120 0.00329973
123 0.0032379
126 0.00319985
129 0.00322392
132 0.0031506
135 0.00307257
138 0.00300644
141 0.00297491
144 0.00296798
147 0.00292584
150 0.00285682
153 0.00282967
156 0.00278047
159 0.00273707
162 0.00271128
165 0.00264807
168 0.00262768
171 0.00259963
174 0.00253168
177 0.00246751
180 0.00240364
183 0.00242932
186 0.00229349
189 0.00227045
192 0.00221592
195 0.00223881
198 0.00222104
201 0.00219822
204 0.00210278
207 0.00207077
210 0.00211821
213 0.00203588
216 0.0020637
219 0.00197817
222 0.00197107
225 0.00190679
228 0.00200888
231 0.00198368
234 0.00194713
237 0.00207373
240 0.00195393
243 0.00205693
246 0.00206637
249 0.00206031
252 0.00204749
255 0.00205458
258 0.00207044
261 0.00207863
264 0.00214439
267 0.00222502
270 0.00226171
273 0.00222476
276 0.00231494
279 0.00241346
282 0.00257713
285 0.00254131
288 0.00246966
291 0.00246238
294 0.0024628
297 0.00234713
300 0.00213604
303 0.0020282
306 0.00193707
309 0.00183796
312 0.00196901
315 0.00192214
318 0.00193097
321 0.00205289
324 0.00266428
327 0.00578667
330 0.0283918
333 0.11768
336 0.049792
339 0.00673709
342 0.00248692
345 0.00170196
348 0.00139223
351 0.00114252
354 0.00146047
357 0.00258514
360 0.00396093
363 0.00289265
366 0.00158831
369 0.000929829
372 0.000792649
375 0.000663353
378 0.00068699
381 0.000719346
384 0.000739362
387 0.000803917
390 0.000828609
393 0.000700965
396 0.000693004
399 0.000715856
402 0.000896472
405 0.000851559
408 0.000830782
411 0.00114064
414 0.00137702
417 0.00108563
420 0.00108128
423 0.00127305
426 0.00137401
429 0.00121068
432 0.00130046
435 0.00141943
438 0.00152481
441 0.00189352
444 0.0020936
447 0.00262443
450 0.00299122
453 0.00370566
456 0.00484765
459 0.00639014
462 0.00988696
465 0.0206859
468 0.0826105
471 0.681401
474 0.70971
477 0.0891059
480 0.0193532
483 0.00923981
486 0.00602348
489 0.0043436
492 0.0032045
495 0.00258952
498 0.00206101
501 0.00177186
504 0.00182584
507 0.00237834
510 0.00257601
513 0.00196728
516 0.00154378
519 0.0010646
522 0.000697722
525 0.000471897
528 0.000453607
531 0.00025476
534 0.00030393
537 0.000216767
540 0.000331382
543 0.000393932
546 0.00030118
549 0.000507719
552 0.000429516
555 0.000644704
558 0.000880959
561 0.00119126
564 0.00166811
567 0.00243547
570 0.00393472
573 0.0107725
576 0.0713587
579 0.369698
582 0.0889116
585 0.0114837
588 0.00438044
591 0.00241421
594 0.00172326
597 0.00137191
600 0.00109265
603 0.000740382
606 0.000606842
609 0.000589887
612 0.000611247
615 0.000667977
618 0.000746209
621 0.00121385
624 0.00183226
627 0.00174923
630 0.00141776
633 0.00146277
636 0.00147655
639 0.0015086
642 0.00145353
645 0.00196755
648 0.00246565
651 0.00364607
654 0.00524441
657 0.00858602
660 0.0172501
663 0.0476429
666 0.163078
669 0.388762
672 0.199293
675 0.0347956
678 0.0116344
681 0.00618234
684 0.00426758
687 0.00363175
690 0.0034779
693 0.00227434
696 0.00171438
699 0.00115605
702 0.000912155
705 0.000860749
708 0.000828252
711 0.000667576
714 0.000604028
717 0.000734276
720 0.00083531
723 0.000833498
726 0.000758903
729 0.00110336
732 0.00146847
735 0.00196368
738 0.0036083
741 0.00855617
744 0.0321302
747 0.113966
750 0.108633
753 0.0193622
756 0.00495526
759 0.00222284
762 0.00140581
765 0.00104213
768 0.000962944
771 0.000952081
774 0.00101589
777 0.00103045
780 0.000948939
783 0.00127603
786 0.0015597
789 0.00174256
792 0.00172372
795 0.00233461
798 0.00325471
801 0.00396507
804 0.00568339
807 0.00821721
810 0.0145019
813 0.0365084
816 0.152292
819 0.578958
822 0.35498
825 0.0549777
828 0.016563
831 0.00836775
834 0.00547546
837 0.00396386
840 0.00313226
843 0.00234642
846 0.00197635
849 0.00162059
852 0.00132327
855 0.00125805
858 0.00110258
861 0.00108568
864 0.00089786
867 0.000574271
870 0.000529017
873 0.000487729
876 0.000769902
879 0.000553604
882 0.00089454
885 0.000779435
888 0.000609185
891 0.000468836
894 0.000486309
897 0.000460381
900 0.000449885
903 0.000529404
906 0.000648145
909 0.000447299
912 0.000370298
915 0.000720486
918 0.000752347
921 0.00114302
924 0.00126577
927 0.00192564
930 0.00249459
933 0.00393392
936 0.00730853
939 0.0160955
942 0.0573037
945 0.266201
948 0.319027
951 0.0766022
954 0.0178248
957 0.00737675
960 0.0044199
963 0.00274147
966 0.00216992
969 0.00154347
972 0.00165894
975 0.00187838
978 0.00134456
981 0.00144503
984 0.000997977
987 0.00135558
990 0.00176603
993 0.0027264
996 0.00552992
999 0.0146662
1002 0.0574688
1005 0.109546
1008 0.0318211
1011 0.00701088
1014 0.00270199
1017 0.0018584
1020 0.00159344
1023 0.00123931
1026 0.0011429
1029 0.00126204
1032 0.00172339
1035 0.00219881
1038 0.00253603
1041 0.00367849
1044 0.00602974
1047 0.00997879
1050 0.020821
1053 0.0559112
1056 0.12715
1059 0.264537
1062 0.163646
1065 0.0375564
1068 0.0132975
1071 0.00686726
1074 0.00476128
1077 0.00328721
1080 0.00240536
1083 0.00213326
1086 0.00205457
1089 0.00202678
1092 0.00213227
1095 0.00300693
1098 0.00433304
1101 0.00834239
1104 0.0199224
1107 0.055467
1110 0.12506
1113 0.11476
1116 0.0255391
1119 0.00752827
1122 0.00361549
1125 0.00199669
1128 0.00147503
1131 0.00128265
1134 0.000984241
1137 0.000776887
1140 0.00113634
1143 0.00132247
1146 0.00181682
1149 0.00234122
1152 0.00504101
1155 0.0158715
1158 0.0861336
1161 0.151155
1164 0.0272623
1167 0.0061976
1170 0.00282197
1173 0.00193115
1176 0.00122551
1179 0.000907674
1182 0.000931543
1185 0.000893837
1188 0.00110604
1191 0.0014643
1194 0.00171918
1197 0.00276723
1200 0.00542599
1203 0.0146378
1206 0.0391622
1209 0.0481455
1212 0.0158288
1215 0.00529048
1218 0.0031632
1221 0.00233699
1224 0.00235637
1227 0.00255845
1230 0.00303767
1233 0.00379911
1236 0.00512987
1239 0.00749916
1242 0.0120596
1245 0.0240003
1248 0.068262
1251 0.223612
1254 0.390212
1257 0.143436
1260 0.0328702
1263 0.0135309
1266 0.00717167
1269 0.00461597
1272 0.00323013
1275 0.00233725
1278 0.00171309
1281 0.00120404
1284 0.000758269
1287 0.000577429
1290 0.000555999
1293 0.000424169
1296 0.000401581
1299 0.000519966
1302 0.000443706
1305 0.000340884
1308 0.000497524
1311 0.000251205
1314 0.000512058
1317 0.000251292
1320 0.000695354
1323 0.00118092
1326 0.0017106
1329 0.00357465
1332 0.00793331
1335 0.0150621
1338 0.0230407
1341 0.0454853
1344 0.0312788
1347 0.00874438
1350 0.00374318
1353 0.00179405
1356 0.00118178
1359 0.00108776
1362 0.00103073
1365 0.00141491
1368 0.00229904
1371 0.00392435
1374 0.00906757
1377 0.0196673
1380 0.0508329
1383 0.0692941
1386 0.0227599
1389 0.00662793
1392 0.00329412
1395 0.00228944
1398 0.00252326
1401 0.00255036
1404 0.00340948
1407 0.00523628
1410 0.00849963
1413 0.0179839
1416 0.0417979
1419 0.0888361
1422 0.160906
1425 0.110527
1428 0.0303851
1431 0.0108501
1434 0.00611446
1437 0.00385537
1440 0.00277977
1443 0.00258472
1446 0.00231698
1449 0.00300854
1452 0.00456722
1455 0.0113478
1458 0.0391107
1461 0.070458
1464 0.0336161
1467 0.00862263
1470 0.00389585
1473 0.00255356
1476 0.00245105
1479 0.00288033
1482 0.0037146
1485 0.00521359
1488 0.00921363
1491 0.019839
1494 0.0463407
1497 0.0851754
1500 0.144793
1503 0.0701533
1506 0.020031
1509 0.00836931
1512 0.0049032
1515 0.00355337
1518 0.00276231
1521 0.00272667
1524 0.00331158
1527 0.00547528
1530 0.0123885
1533 0.0236276
1536 0.0469302
1539 0.0363563
1542 0.0101221
1545 0.00357739
1548 0.00230366
1551 0.00147586
1554 0.00135622
1557 0.00155614
1560 0.00248329
1563 0.00395639
1566 0.01056
1569 0.038165
1572 0.106639
1575 0.0563316
1578 0.0117491
1581 0.00441089
1584 0.00246955
1587 0.00135202
1590 0.00120929
1593 0.000589913
1596 0.000285518
1599 0.000437984
1602 0.0004277
1605 0.000679427
1608 0.000320921
1611 0.000593407
1614 0.000647465
1617 0.000883595
1620 0.00109399
1623 0.00173399
1626 0.00249325
1629 0.00337168
1632 0.00628711
1635 0.0138323
1638 0.0354977
1641 0.0780104
1644 0.116813
1647 0.0383732
1650 0.0113181
1653 0.00567472
1656 0.00345601
1659 0.00313552
1662 0.00250661
1665 0.00306908
1668 0.00427729
1671 0.00753453
1674 0.0150615
1677 0.0236141
1680 0.0156551
1683 0.00675367
1686 0.00424417
1689 0.00473641
1692 0.00518879
1695 0.00777228
1698 0.0118679
1701 0.0226264
1704 0.0446654
1707 0.0932217
1710 0.168527
1713 0.128041
1716 0.0449354
1719 0.0170734
1722 0.00928385
1725 0.00651296
1728 0.00570855
1731 0.00582727
1734 0.00821689
1737 0.0123208
1740 0.020737
1743 0.0414112
1746 0.0299473
1749 0.0106413
1752 0.00396557
1755 0.00212187
1758 0.00186519
1761 0.00114977
1764 0.000531511
1767 0.000461381
1770 0.000345591
1773 0.000494821
1776 0.000353823
1779 0.000619143
1782 0.000521208
1785 0.000634953
1788 0.000715075
1791 0.00129891
1794 0.00221387
1797 0.00427874
1800 0.00900021
1803 0.0205373
1806 0.0429478
1809 0.0353349
1812 0.011252
1815 0.00499971
1818 0.00391341
1821 0.00441984
1824 0.00618152
1827 0.010412
1830 0.0206749
1833 0.0319749
1836 0.0523804
1839 0.0852228
1842 0.0475482
1845 0.0152605
1848 0.00669348
1851 0.0035925
1854 0.00224266
1857 0.00175373
1860 0.00130499
1863 0.000755767
1866 0.000405844
1869 0.000441855
1872 0.000437652
1875 0.000301415
1878 0.000677003
1881 0.000541267
1884 0.00117856
1887 0.00174422
1890 0.00393504
1893 0.0099739
1896 0.0246497
1899 0.027807
1902 0.0153796
1905 0.00571354
1908 0.00299589
1911 0.00201211
1914 0.00181156
1917 0.00240604
1920 0.004202
1923 0.00856672
1926 0.0171488
1929 0.0219857
1932 0.0119749
1935 0.0048473
1938 0.00317871
1941 0.00324245
1944 0.00475204
1947 0.0072692
1950 0.0147716
1953 0.0316841
1956 0.0707078
1959 0.0657524
1962 0.0231771
1965 0.00929234
1968 0.00576535
1971 0.00459023
1974 0.00526118
1977 0.00793383
1980 0.0140785
1983 0.0233663
1986 0.0389206
1989 0.0279976
1992 0.0105346
1995 0.00604141
1998 0.00474939
2001 0.00526158
2004 0.0073525
2007 0.0121327
2010 0.0262672
2013 0.0570701
2016 0.0529062
2019 0.0218358
2022 0.00847634
2025 0.00481825
2028 0.00382367
2031 0.00408581
2034 0.00454004
2037 0.0045366
2040 0.00567837
2043 0.00869038
2046 0.0083639
2049 0.00537414
2052 0.00506295
2055 0.00637546
2058 0.00951665
2061 0.0156923
2064 0.0267105
2067 0.0454805
2070 0.0796299
2073 0.0612801
2076 0.0223808
2079 0.00981352
2082 0.00585372
2085 0.00372722
2088 0.00307997
2091 0.00262097
2094 0.00223348
2097 0.00194032
2100 0.00223899
2103 0.0019495
2106 0.00264196
2109 0.00358955
2112 0.00543294
2115 0.00856392
2118 0.011028
2121 0.014956
2124 0.0280592
2127 0.0300534
2130 0.0150053
2133 0.00743002
2136 0.0048087
2139 0.00562305
2142 0.00722362
2145 0.0108342
2148 0.0191202
2151 0.0281674
2154 0.0190166
2157 0.00850466
2160 0.00494478
2163 0.00471308
2166 0.00588448
2169 0.00990157
2172 0.0211756
2175 0.0394344
2178 0.0416214
2181 0.0226532
2184 0.00911604
2187 0.00517632
2190 0.00334257
2193 0.00336968
2196 0.00427012
2199 0.00776316
2202 0.0144895
2205 0.0127712
2208 0.00478496
2211 0.00294469
2214 0.00326793
2217 0.00442177
2220 0.00718313
2223 0.0102142
2226 0.0146531
2229 0.0264126
2232 0.0224792
2235 0.00907054
2238 0.00473287
2241 0.00334535
2244 0.00383844
2247 0.00563706
2250 0.00987411
2253 0.0166856
2256 0.0154239
2259 0.00698093
2262 0.00410717
2265 0.00415997
2268 0.00572341
2271 0.00962203
2274 0.0137444
2277 0.0211157
2280 0.0337296
2283 0.0224183
2286 0.00875361
2289 0.00396348
2292 0.00185085
2295 0.00116677
2298 0.000501673
2301 0.000876941
2304 0.000284437
2307 0.000124218
2310 0.000338855
2313 0.000225032
2316 0.000345425
2319 0.000899953
2322 0.002004
2325 0.00568258
2328 0.0122423
2331 0.00558982
2334 0.00237665
2337 0.00128754
2340 0.00262684
2343 0.00281981
2346 0.00451886
2349 0.00556858
2352 0.00921149
2355 0.011105
2358 0.0067354
2361 0.00518052
2364 0.00634028
2367 0.00883393
2370 0.0139307
2373 0.0284158
2376 0.050947
2379 0.0447384
2382 0.0215472
2385 0.00945961
2388 0.0067299
2391 0.0066613
2394 0.00685831
2397 0.0106479
2400 0.0148122
2403 0.0144837
2406 0.00951354
2409 0.0049969
2412 0.0045873
2415 0.00553826
2418 0.00824972
2421 0.0123056
2424 0.0197656
2427 0.0155692
2430 0.00886462
2433 0.00485625
2436 0.00434495
2439 0.00489104
2442 0.0060596
2445 0.00861743
2448 0.0122764
2451 0.0110084
2454 0.00791872
2457 0.00675637
2460 0.00880387
2463 0.0130996
2466 0.0196327
2469 0.0330129
2472 0.0452385
2475 0.0315995
2478 0.0132013
2481 0.00658387
2484 0.00399354
2487 0.00304924
2490 0.00290192
2493 0.00221911
2496 0.0025649
2499 0.00253091
2502 0.00280808
2505 0.00411326
2508 0.00698003
2511 0.0134543
2514 0.0223571
2517 0.0333057
2520 0.024037
2523 0.00993365
2526 0.00510212
2529 0.00418347
2532 0.0031495
2535 0.0044634
2538 0.00751055
2541 0.0077315
2544 0.00434944
2547 0.00255644
2550 0.00337384
2553 0.00333473
2556 0.00418613
2559 0.00573624
2562 0.00876299
2565 0.00897808
2568 0.0055296
2571 0.00374576
2574 0.00458156
2577 0.00527854
2580 0.00869542
2583 0.0150984
2586 0.0147367
2589 0.00776805
2592 0.00346417
2595 0.00115968
2598 0.0013818
2601 0.00132083
2604 0.000434734
2607 0.00102853
2610 0.000538671
2613 0.0012132
2616 0.00130431
2619 0.00232864
2622 0.00470795
2625 0.00698816
2628 0.00999029
2631 0.00697675
2634 0.00463171
2637 0.00527631
2640 0.00811604
2643 0.012719
2646 0.0196949
2649 0.0298796
2652 0.0266666
2655 0.0140888
2658 0.005794
2661 0.00252925
2664 0.00194461
2667 0.00113493
2670 0.000939949
2673 0.000998072
2676 0.000600945
2679 0.000839666
2682 0.00115487
2685 0.000915758
2688 0.000935969
2691 0.00236863
2694 0.00249556
2697 0.00271145
2700 0.00284777
2703 0.00250366
2706 0.00375218
2709 0.00579103
2712 0.00805437
2715 0.00933546
2718 0.00777559
2721 0.00564878
2724 0.00702911
2727 0.0086387
2730 0.0140534
2733 0.024549
2736 0.02656
2739 0.0162941
2742 0.00882583
2745 0.00504286
2748 0.00353272
2751 0.00420257
2754 0.00484678
2757 0.00715591
2760 0.00505231
2763 0.00527718
2766 0.00583089
2769 0.00639027
2772 0.0101032
2775 0.0177499
2778 0.0178314
2781 0.0113417
2784 0.00695146
2787 0.00551765
2790 0.0045936
2793 0.00525012
2796 0.00737647
2799 0.0081264
2802 0.00549661
2805 0.00377308
2808 0.00406128
2811 0.00596214
2814 0.0110574
2817 0.0146248
2820 0.00938649
2823 0.00355506
2826 0.00190585
2829 0.00119943
2832 0.00151748
2835 0.00157983
2838 0.000917187
2841 0.00173165
2844 0.00252618
2847 0.00337636
2850 0.00377901
2853 0.00604718
2856 0.00889608
2859 0.0109019
2862 0.00847928
2865 0.00559556
2868 0.00367338
2871 0.00389534
2874 0.00493008
2877 0.00602667
2880 0.00488452
2883 0.00519815
2886 0.00683721
2889 0.00934943
2892 0.011407
2895 0.0182034
2898 0.0248862
2901 0.0195663
2904 0.00998527
2907 0.00657047
2910 0.0058559
2913 0.00721767
2916 0.0105332
2919 0.00800033
2922 0.00443502
2925 0.00303365
2928 0.00358876
2931 0.0049977
2934 0.00731348
2937 0.00864172
2940 0.00610971
2943 0.00405233
2946 0.00323073
2949 0.00467333
2952 0.00442084
2955 0.00721464
2958 0.00659959
2961 0.00470161
2964 0.00262199
2967 0.00357613
2970 0.00635887
2973 0.00720949
2976 0.0101795
2979 0.00691934
2982 0.00307892
2985 0.0019779
2988 0.000000000000000000e+00
2991 0.00167342
2994 0.000977056
2997 0.00129855
3000 0.00197101
3003 0.00236698
3006 0.00301978
3009 0.00253822
3012 0.00363841
3015 0.00658671
3018 0.00518251
3021 0.00459189
3024 0.00353003
3027 0.00349103
3030 0.00596381
3033 0.00838511
3036 0.00656144
3039 0.0044263
3042 0.00477299
3045 0.00444813
3048 0.0054175
3051 0.00593045
3054 0.00900896
3057 0.00734516
3060 0.00582387
3063 0.00546018
3066 0.00608526
3069 0.00782853
3072 0.00892718
3075 0.00815623
3078 0.00593655
3081 0.00530025
3084 0.00584321
3087 0.00767263
3090 0.0122925
3093 0.0108686
3096 0.0065243
3099 0.00487816
3102 0.00422754
3105 0.00438721
3108 0.00589866
3111 0.0061244
3114 0.00546011
3117 0.00683883
3120 0.00845768
3123 0.0117197
3126 0.0160872
3129 0.0135935
3132 0.00964713
3135 0.00485079
3138 0.00434097
3141 0.00340939
3144 0.00237041
3147 0.00214044
3150 0.00345824
3153 0.00266279
3156 0.00391734
3159 0.00495961
3162 0.00727776
3165 0.00632892
3168 0.00368225
3171 0.00434318
3174 0.00336739
3177 0.00538065
3180 0.00616492
3183 0.00795374
3186 0.00762583
3189 0.00721813
3192 0.00926137
3195 0.00929272
3198 0.0151311
3201 0.0163184
3204 0.0105164
3207 0.0062537
3210 0.0064514
3213 0.00481495
3216 0.0047095
3219 0.00477165
3222 0.00212926
3225 0.00312488
3228 0.00332315
3231 0.00143131
3234 0.000497444
3237 0.000285406
3240 0.00114536
3243 0.0024336
3246 0.0018217
3249 0.00267946
3252 0.00394554
3255 0.00188683
3258 0.00401107
3261 0.00417329
3264 0.00490662
3267 0.00718825
3270 0.00958602
3273 0.00827698
3276 0.00566251
3279 0.00533251
3282 0.00287039
3285 0.001887
3288 0.00165786
3291 0.00300978
3294 0.00142103
3297 0.00324656
3300 0.00300143
3303 0.00239314
3306 0.00450839
3309 0.00446463
3312 0.00271437
3315 0.00267288
3318 0.00473208
3321 0.00257132
3324 0.00379953
3327 0.00431152
3330 0.00565825
3333 0.00587838
3336 0.00602247
3339 0.0105097
3342 0.0101926
3345 0.00738596
3348 0.00599988
3351 0.00558391
3354 0.00803095
3357 0.00543851
3360 0.0076497
3363 0.00645119
3366 0.00483302
3369 0.00570798
3372 0.00509545
3375 0.0077271
3378 0.00230951
3381 0.00609687
3384 0.00448792
3387 0.00834642
3390 0.00797317
3393 0.00747556
3396 0.00820372
3399 0.00542551
3402 0.00564451
3405 0.00592879
3408 0.0059748
3411 0.00635262
3414 0.00467203
3417 0.00710692
3420 0.00313212
3423 0.00453568
3426 0.00541439
3429 0.00552851
3432 0.00500882
3435 0.00582791
3438 0.00674026
3441 0.00702937
3444 0.0105599
3447 0.00897836
3450 0.00361277
3453 0.0039014
3456 0.00562935
3459 0.00925895
3462 0.00797731
3465 0.0113041
3468 0.00294077
3471 0.0116341
3474 0.00597128
3477 0.00403942
3480 0.0156131
3483 0.0139613
3486 0.0146036
3487 0.00243419