File: constrainednmf/example_data/BaTiO3_xrd_ramp/BTO_235K_tth.xy
0.000000000000000000e+00 0.000978223
3 0.00095521
6 0.00107768
9 0.00270808
12 0.010446
15 0.0119405
18 0.0113146
21 0.0106513
24 0.0109684
27 0.0109074
30 0.00892918
33 0.00359402
36 0.00251773
39 0.00254499
42 0.00264161
45 0.0026706
48 0.002641
51 0.00256141
54 0.00262783
57 0.00264759
60 0.00269835
63 0.00276629
66 0.00272884
69 0.00278979
72 0.00283432
75 0.00293991
78 0.00303475
81 0.00316155
84 0.00323754
87 0.00327785
90 0.00325881
93 0.00326653
96 0.00320921
99 0.00323794
102 0.00323165
105 0.00320827
108 0.00323073
111 0.00319981
114 0.00326712
117 0.0032798
120 0.0032489
123 0.00328235
126 0.00314331
129 0.00329445
132 0.0032775
135 0.0033178
138 0.00329607
141 0.00329974
144 0.00330907
147 0.00329463
150 0.0032949
153 0.00325709
156 0.00325928
159 0.00321734
162 0.00324489
165 0.00330874
168 0.00322767
171 0.00318474
174 0.00322883
177 0.00317489
180 0.00323661
183 0.00313706
186 0.00313166
189 0.00312951
192 0.00313407
195 0.00307511
198 0.00312266
201 0.00308718
204 0.00302955
207 0.00309457
210 0.00307543
213 0.00301454
216 0.00297174
219 0.00294093
222 0.00293855
225 0.00296379
228 0.00297132
231 0.00303669
234 0.00294103
237 0.00298719
240 0.00302936
243 0.00304602
246 0.00303887
249 0.00302293
252 0.00303965
255 0.00303916
258 0.00305795
261 0.00307497
264 0.00304652
267 0.00315867
270 0.00311984
273 0.00310807
276 0.00325755
279 0.00326426
282 0.00335221
285 0.00336689
288 0.00342525
291 0.00345501
294 0.0034439
297 0.00332842
300 0.00318513
303 0.0030298
306 0.00296919
309 0.00288108
312 0.00292555
315 0.00290125
318 0.00303754
321 0.0031452
324 0.00373684
327 0.00626604
330 0.027701
333 0.10957
336 0.0667986
339 0.0109293
342 0.00413327
345 0.00274953
348 0.00230403
351 0.00217856
354 0.00220306
357 0.00288713
360 0.00494663
363 0.00433641
366 0.00286108
369 0.00180058
372 0.00149086
375 0.0015463
378 0.00138844
381 0.00145872
384 0.00139853
387 0.0016219
390 0.00151021
393 0.00140143
396 0.00143276
399 0.00137593
402 0.00135097
405 0.00141874
408 0.00148379
411 0.00160162
414 0.00174921
417 0.00191417
420 0.0017151
423 0.00181603
426 0.00195149
429 0.00165315
432 0.00165334
435 0.00175424
438 0.00178572
441 0.00215432
444 0.00247324
447 0.00280838
450 0.00322083
453 0.00398067
456 0.00484268
459 0.00659711
462 0.00970516
465 0.0195174
468 0.0778887
471 0.554164
474 0.869566
477 0.135634
480 0.0243449
483 0.010467
486 0.00665165
489 0.0048911
492 0.00354934
495 0.0027593
498 0.00221465
501 0.00192643
504 0.00184431
507 0.00225297
510 0.00268726
513 0.00256071
516 0.00204952
519 0.0011942
522 0.000773748
525 0.000804945
528 0.00057047
531 0.000562745
534 0.00053538
537 0.00046495
540 0.000588519
543 0.000574963
546 0.000464944
549 0.000544858
552 0.000832854
555 0.000784069
558 0.00100198
561 0.00135057
564 0.00180653
567 0.00243017
570 0.0039788
573 0.00925873
576 0.0546149
579 0.341045
582 0.146864
585 0.0163865
588 0.00552149
591 0.00321371
594 0.00263722
597 0.00190871
600 0.00160468
603 0.00133867
606 0.00104575
609 0.000968373
612 0.0010375
615 0.00113476
618 0.0010594
621 0.00145836
624 0.00241451
627 0.00221453
630 0.00183067
633 0.00194291
636 0.00199077
639 0.00209518
642 0.00186656
645 0.00228028
648 0.0027336
651 0.00347986
654 0.00503517
657 0.00792121
660 0.0154087
663 0.0438739
666 0.194104
669 0.302106
672 0.22682
675 0.0972338
678 0.0191668
681 0.00814181
684 0.00500906
687 0.00369842
690 0.00374854
693 0.00356556
696 0.002689
699 0.00196843
702 0.00151809
705 0.00133543
708 0.00128838
711 0.00219983
714 0.00102474
717 0.00110777
720 0.00115685
723 0.00151998
726 0.00136126
729 0.00149449
732 0.00168768
735 0.00241588
738 0.00360874
741 0.00834558
744 0.0331414
747 0.106254
750 0.103162
753 0.0479648
756 0.00896789
759 0.00336475
762 0.00212488
765 0.00164235
768 0.00133075
771 0.00139809
774 0.0013198
777 0.00139063
780 0.00134501
783 0.00156884
786 0.00159441
789 0.00181016
792 0.00201525
795 0.00258062
798 0.00313536
801 0.00404754
804 0.00539118
807 0.00769332
810 0.0131488
813 0.031435
816 0.139581
819 0.484323
822 0.476269
825 0.130549
828 0.0257943
831 0.0106555
834 0.00644582
837 0.00453247
840 0.00347819
843 0.00244318
846 0.00225318
849 0.00172246
852 0.00155456
855 0.00132764
858 0.00145915
861 0.00125396
864 0.00112718
867 0.00103452
870 0.000896348
873 0.00107887
876 0.000787124
879 0.000973402
882 0.00113273
885 0.00118167
888 0.00106407
891 0.00106791
894 0.00098233
897 0.000896849
900 0.000931159
903 0.00073305
906 0.000664678
909 0.000842032
912 0.00085455
915 0.000994699
918 0.00117369
921 0.00118441
924 0.00162526
927 0.00201503
930 0.00280636
933 0.00396648
936 0.0069644
939 0.015926
942 0.0646357
945 0.17911
948 0.339712
951 0.167647
954 0.0309289
957 0.0103605
960 0.00550511
963 0.00348041
966 0.00255709
969 0.00194561
972 0.00182611
975 0.00188382
978 0.00187645
981 0.00186112
984 0.00180227
987 0.00164899
990 0.0018397
993 0.00274094
996 0.00496436
999 0.014397
1002 0.0515318
1005 0.0974306
1008 0.0583174
1011 0.0174437
1014 0.00534639
1017 0.00253219
1020 0.00172186
1023 0.0014788
1026 0.00119179
1029 0.00120159
1032 0.00168734
1035 0.00185721
1038 0.00254272
1041 0.00325128
1044 0.00509991
1047 0.00866377
1050 0.0185529
1053 0.0558249
1056 0.165955
1059 0.193946
1062 0.136498
1065 0.133137
1068 0.0351212
1071 0.0108864
1074 0.00551308
1077 0.00382747
1080 0.00289147
1083 0.00256254
1086 0.00251363
1089 0.00240602
1092 0.00242347
1095 0.00281779
1098 0.00415142
1101 0.00714652
1104 0.0187099
1107 0.0649591
1110 0.112176
1113 0.0850037
1116 0.0774942
1119 0.0227831
1122 0.00601483
1125 0.00289995
1128 0.00180557
1131 0.00126096
1134 0.00106371
1137 0.000801453
1140 0.000855225
1143 0.00118678
1146 0.00153894
1149 0.00241101
1152 0.00404364
1155 0.0119128
1158 0.0604091
1161 0.149127
1164 0.0757741
1167 0.0118907
1170 0.00412794
1173 0.00199072
1176 0.00153539
1179 0.000949586
1182 0.000870266
1185 0.000869243
1188 0.000906042
1191 0.000877925
1194 0.00167874
1197 0.0023851
1200 0.00544287
1203 0.0164124
1206 0.0311366
1209 0.041076
1212 0.0334722
1215 0.0116477
1218 0.00392496
1221 0.00259844
1224 0.00245251
1227 0.00244291
1230 0.00283889
1233 0.00328906
1236 0.00413619
1239 0.00645725
1242 0.0105156
1245 0.0221369
1248 0.0725491
1251 0.193158
1254 0.311465
1257 0.270622
1260 0.103092
1263 0.0246102
1266 0.0103552
1269 0.00571505
1272 0.00393194
1275 0.00269165
1278 0.00191918
1281 0.00140468
1284 0.00110033
1287 0.00111238
1290 0.000880421
1293 0.000702251
1296 0.000384879
1299 0.000598079
1302 0.000415088
1305 0.000849526
1308 0.0005415
1311 0.000801294
1314 0.000716639
1317 0.000708958
1320 0.00114435
1323 0.00161565
1326 0.00215166
1329 0.00342782
1332 0.00788229
1335 0.0210355
1338 0.036711
1341 0.0255292
1344 0.0175925
1347 0.0244508
1350 0.0184636
1353 0.00556245
1356 0.0027223
1359 0.00210516
1362 0.00186656
1365 0.00194184
1368 0.00276887
1371 0.00435
1374 0.00938122
1377 0.0248235
1380 0.0507525
1383 0.0549601
1386 0.0373089
1389 0.0229707
1392 0.0100554
1395 0.00407067
1398 0.00293566
1401 0.00322951
1404 0.00375194
1407 0.00534226
1410 0.00865047
1413 0.0179422
1416 0.0508012
1419 0.100709
1422 0.118796
1425 0.107306
1428 0.0822876
1431 0.0462073
1434 0.0136523
1437 0.00706651
1440 0.0046809
1443 0.00355222
1446 0.00356605
1449 0.00390816
1452 0.00617785
1455 0.0155844
1458 0.0289537
1461 0.0526505
1464 0.0646683
1467 0.0255765
1470 0.00784532
1473 0.00424966
1476 0.00375946
1479 0.00371779
1482 0.00424726
1485 0.0057293
1488 0.00976756
1491 0.0220057
1494 0.0540681
1497 0.0944898
1500 0.0977828
1503 0.0759157
1506 0.0802579
1509 0.029715
1512 0.010383
1515 0.00592289
1518 0.00436399
1521 0.00426976
1524 0.00435382
1527 0.00674326
1530 0.0154783
1533 0.0306377
1536 0.0391632
1539 0.0306659
1542 0.0305782
1545 0.0160228
1548 0.00538804
1551 0.0032907
1554 0.00276923
1557 0.0029781
1560 0.00355085
1563 0.00502889
1566 0.0109888
1569 0.0347633
1572 0.0744482
1575 0.0999929
1578 0.0438853
1581 0.0109783
1584 0.00493888
1587 0.00328211
1590 0.0024179
1593 0.00222247
1596 0.00187286
1599 0.00180807
1602 0.00171999
1605 0.0016813
1608 0.00182146
1611 0.00172027
1614 0.00178906
1617 0.00212915
1620 0.00211639
1623 0.00258212
1626 0.00305081
1629 0.00398528
1632 0.00684791
1635 0.0139613
1638 0.038293
1641 0.0741444
1644 0.0862045
1647 0.0767244
1650 0.0500335
1653 0.0150985
1656 0.0069564
1659 0.00482044
1662 0.00433839
1665 0.00414024
1668 0.00639276
1671 0.0110146
1674 0.0145653
1677 0.0186973
1680 0.0193791
1683 0.0152748
1686 0.00942951
1689 0.00669974
1692 0.00597186
1695 0.00793999
1698 0.0123622
1701 0.0246607
1704 0.0610981
1707 0.0976006
1710 0.129939
1713 0.129675
1716 0.101542
1719 0.059192
1722 0.0309978
1725 0.0129623
1728 0.00839036
1731 0.00759542
1734 0.00999524
1737 0.0177427
1740 0.0299763
1743 0.0322166
1746 0.0261752
1749 0.017095
1752 0.0187523
1755 0.00980459
1758 0.00382656
1761 0.00230297
1764 0.00190737
1767 0.00135656
1770 0.00141573
1773 0.00117988
1776 0.00114903
1779 0.00111453
1782 0.00135593
1785 0.00108402
1788 0.00170704
1791 0.00208896
1794 0.00293108
1797 0.00530555
1800 0.0119834
1803 0.0244437
1806 0.0340521
1809 0.0368897
1812 0.0274003
1815 0.01601
1818 0.00867388
1821 0.00578563
1824 0.00657921
1827 0.0112885
1830 0.0236897
1833 0.0482354
1836 0.0654373
1839 0.0540043
1842 0.0392621
1845 0.0483807
1848 0.0387375
1851 0.0123192
1854 0.00504622
1857 0.00279302
1860 0.00206883
1863 0.0013246
1866 0.00101358
1869 0.000684575
1872 0.000464628
1875 0.000546105
1878 0.000628836
1881 0.000776899
1884 0.00152557
1887 0.00236006
1890 0.00674154
1893 0.0097512
1896 0.0135814
1899 0.0235981
1902 0.0305291
1905 0.018084
1908 0.00635351
1911 0.00324931
1914 0.00241985
1917 0.00299415
1920 0.00590375
1923 0.0105829
1926 0.0145737
1929 0.0176745
1932 0.0175637
1935 0.0131442
1938 0.00721581
1941 0.0039954
1944 0.00439845
1947 0.00800856
1950 0.016908
1953 0.0320653
1956 0.0558343
1959 0.067471
1962 0.0540601
1965 0.0329906
1968 0.0144296
1971 0.00711727
1974 0.00631743
1977 0.009897
1980 0.0166399
1983 0.0233243
1986 0.0304555
1989 0.0257314
1992 0.0253056
1995 0.0194323
1998 0.0076901
2001 0.00575901
2004 0.00728695
2007 0.0149921
2010 0.0266501
2013 0.036805
2016 0.0562472
2019 0.0482936
2022 0.0220216
2025 0.0119679
2028 0.00818461
2031 0.00511904
2034 0.0049086
2037 0.00725332
2040 0.00731206
2043 0.00576921
2046 0.00398416
2049 0.0043759
2052 0.00662118
2055 0.00886682
2058 0.0095652
2061 0.0174008
2064 0.0376183
2067 0.0554177
2070 0.0612945
2073 0.0533066
2076 0.0487505
2079 0.0362083
2082 0.0220817
2085 0.00964165
2088 0.0043403
2091 0.00289345
2094 0.00214233
2097 0.00158662
2100 0.00153323
2103 0.00115348
2106 0.00199736
2109 0.00281091
2112 0.00462786
2115 0.00933218
2118 0.0175951
2121 0.0243572
2124 0.0215006
2127 0.0147162
2130 0.0128275
2133 0.018155
2136 0.0205413
2139 0.0106741
2142 0.010143
2145 0.0151673
2148 0.0202449
2151 0.0227553
2154 0.0210225
2157 0.0154195
2160 0.0120481
2163 0.0100567
2166 0.0090078
2169 0.0153683
2172 0.018017
2175 0.0273055
2178 0.0400626
2181 0.0418372
2184 0.0318546
2187 0.0136095
2190 0.0058283
2193 0.00409785
2196 0.00507614
2199 0.00913057
2202 0.0108895
2205 0.0129708
2208 0.0113433
2211 0.00740995
2214 0.00418184
2217 0.00469998
2220 0.00817076
2223 0.0154551
2226 0.0206249
2229 0.0191085
2232 0.013748
2235 0.0136937
2238 0.0182801
2241 0.0132586
2244 0.00739434
2247 0.00885269
2250 0.0105933
2253 0.0142362
2256 0.0159835
2259 0.0141682
2262 0.0107866
2265 0.00783986
2268 0.0083739
2271 0.0128552
2274 0.0192202
2277 0.0262679
2280 0.0253619
2283 0.0184755
2286 0.0190553
2289 0.0222547
2292 0.0109891
2295 0.00376374
2298 0.00189022
2301 0.000878084
2304 0.000728388
2307 0.000679424
2310 0.000434442
2313 0.000479686
2316 0.000590091
2319 0.000962973
2322 0.0018455
2325 0.00476321
2328 0.00890678
2331 0.0113233
2334 0.00910997
2337 0.00398795
2340 0.00293328
2343 0.00391013
2346 0.00680945
2349 0.00876472
2352 0.00954257
2355 0.00860442
2358 0.0082215
2361 0.00980588
2364 0.0106671
2367 0.0134896
2370 0.0221293
2373 0.0325299
2376 0.0408252
2379 0.0503436
2382 0.0463989
2385 0.0275522
2388 0.0168707
2391 0.017282
2394 0.0154511
2397 0.0132896
2400 0.0135469
2403 0.0141426
2406 0.0139744
2409 0.010188
2412 0.00988097
2415 0.012175
2418 0.0110578
2421 0.0125268
2424 0.0175183
2427 0.0172568
2430 0.0155539
2433 0.0167262
2436 0.0121176
2439 0.00986489
2442 0.0096647
2445 0.0110945
2448 0.0119167
2451 0.0109101
2454 0.0110726
2457 0.0127466
2460 0.0157959
2463 0.0239276
2466 0.0323803
2469 0.0364156
2472 0.0382591
2475 0.0351181
2478 0.0295636
2481 0.0237991
2484 0.0203453
2487 0.0120762
2490 0.0061192
2493 0.0046263
2496 0.00392433
2499 0.0036283
2502 0.00411303
2505 0.00561028
2508 0.0105492
2511 0.0154
2514 0.0211942
2517 0.0298495
2520 0.0290683
2523 0.0276066
2526 0.023365
2529 0.0124531
2532 0.00795049
2535 0.00794382
2538 0.00890243
2541 0.00864264
2544 0.00771779
2547 0.00561792
2550 0.006227
2553 0.00746114
2556 0.00842772
2559 0.00936672
2562 0.00923786
2565 0.00707059
2568 0.00673385
2571 0.00869613
2574 0.0122799
2577 0.0134599
2580 0.0138021
2583 0.015257
2586 0.0149407
2589 0.0121518
2592 0.00943466
2595 0.00891673
2598 0.00649706
2601 0.00285904
2604 0.00177332
2607 0.00221077
2610 0.00197087
2613 0.00206183
2616 0.00277467
2619 0.00419574
2622 0.00585231
2625 0.00777798
2628 0.00907059
2631 0.0105541
2634 0.0108813
2637 0.0118467
2640 0.0148589
2643 0.0185258
2646 0.0226488
2649 0.0285539
2652 0.0282215
2655 0.026144
2658 0.0226133
2661 0.0171445
2664 0.00915118
2667 0.00373845
2670 0.00228871
2673 0.00167457
2676 0.00152209
2679 0.00152647
2682 0.00213362
2685 0.00220714
2688 0.00291856
2691 0.0022429
2694 0.00206481
2697 0.00221877
2700 0.00323013
2703 0.00476385
2706 0.00738529
2709 0.00817632
2712 0.00872362
2715 0.00966294
2718 0.00988314
2721 0.0106905
2724 0.0127131
2727 0.0156614
2730 0.0212675
2733 0.0258258
2736 0.0245506
2739 0.0223197
2742 0.0171369
2745 0.0159102
2748 0.0135071
2751 0.010588
2754 0.00776848
2757 0.00551028
2760 0.00461367
2763 0.00573115
2766 0.00855969
2769 0.0112627
2772 0.0143582
2775 0.0144759
2778 0.016281
2781 0.0157708
2784 0.0125456
2787 0.0115957
2790 0.0130869
2793 0.0122411
2796 0.00862233
2799 0.00584636
2802 0.00507639
2805 0.0057323
2808 0.00751968
2811 0.00954869
2814 0.0095233
2817 0.0130221
2820 0.0158232
2823 0.0135085
2826 0.00766165
2829 0.00308217
2832 0.000511208
2835 0.000274166
2838 0.000335765
2841 0.0011208
2844 0.00149567
2847 0.00417464
2850 0.00520992
2853 0.0070965
2856 0.00801717
2859 0.00775478
2862 0.00809845
2865 0.00837464
2868 0.00737803
2871 0.00820236
2874 0.00818581
2877 0.00538503
2880 0.00567576
2883 0.00682638
2886 0.0102021
2889 0.0142063
2892 0.0181802
2895 0.0213018
2898 0.0221282
2901 0.019393
2904 0.0187821
2907 0.019625
2910 0.0172022
2913 0.01424
2916 0.0112197
2919 0.00905436
2922 0.0089337
2925 0.00810737
2928 0.00730592
2931 0.00504137
2934 0.0054681
2937 0.00786312
2940 0.00906332
2943 0.00952387
2946 0.00730989
2949 0.00646173
2952 0.00701289
2955 0.00704588
2958 0.00708588
2961 0.00712817
2964 0.00640469
2967 0.00676618
2970 0.00672292
2973 0.00806384
2976 0.00855666
2979 0.00840731
2982 0.00823526
2985 0.00791895
2988 0.0047742
2991 0.0012917
2994 0.000952686
2997 0.00164931
3000 0.00155554
3003 0.00298074
3006 0.00353825
3009 0.00456901
3012 0.00620179
3015 0.00574865
3018 0.00512592
3021 0.00516915
3024 0.00721185
3027 0.0100031
3030 0.00943271
3033 0.00805232
3036 0.00797411
3039 0.00715314
3042 0.00866887
3045 0.00997315
3048 0.00936083
3051 0.00728876
3054 0.00697215
3057 0.00586629
3060 0.00735789
3063 0.0101265
3066 0.0107576
3069 0.0109004
3072 0.010282
3075 0.00953106
3078 0.00998192
3081 0.0105059
3084 0.010032
3087 0.0124733
3090 0.0124077
3093 0.01009
3096 0.00939454
3099 0.0105433
3102 0.0113634
3105 0.00891565
3108 0.00714169
3111 0.0082118
3114 0.0100494
3117 0.0102731
3120 0.0134074
3123 0.015629
3126 0.017963
3129 0.0183034
3132 0.0188798
3135 0.0146607
3138 0.0106281
3141 0.00770508
3144 0.00955445
3147 0.0065704
3150 0.00429896
3153 0.00374067
3156 0.00570739
3159 0.00559885
3162 0.00841944
3165 0.0095712
3168 0.0107154
3171 0.011977
3174 0.00954308
3177 0.0100059
3180 0.00862732
3183 0.0108681
3186 0.011432
3189 0.0124334
3192 0.0146711
3195 0.0155069
3198 0.0186456
3201 0.0193188
3204 0.017454
3207 0.0164586
3210 0.0152177
3213 0.0123197
3216 0.00847318
3219 0.0051641
3222 0.00430696
3225 0.00388402
3228 0.00298711
3231 0.00447608
3234 0.00404601
3237 0.00333861
3240 0.00357614
3243 0.00319079
3246 0.00359608
3249 0.00455107
3252 0.00558614
3255 0.00402243
3258 0.00560146
3261 0.00741436
3264 0.00980222
3267 0.0100654
3270 0.0102379
3273 0.0106012
3276 0.00942248
3279 0.00782065
3282 0.00689265
3285 0.00613041
3288 0.00460472
3291 0.00189467
3294 0.000000000000000000e+00
3297 0.00153351
3300 0.00390198
3303 0.00408457
3306 0.00363517
3309 0.0033805
3312 0.00419744
3315 0.00457216
3318 0.00404799
3321 0.00420777
3324 0.00375131
3327 0.0027508
3330 0.00689163
3333 0.0063621
3336 0.00675279
3339 0.0105053
3342 0.0103411
3345 0.0115135
3348 0.00878612
3351 0.00864616
3354 0.00986076
3357 0.00834105
3360 0.00744523
3363 0.00678729
3366 0.00637448
3369 0.00537681
3372 0.00764269
3375 0.00481073
3378 0.0063486
3381 0.00680253
3384 0.0074678
3387 0.00673623
3390 0.00657818
3393 0.00699142
3396 0.00814923
3399 0.00724715
3402 0.00821818
3405 0.00556339
3408 0.00657419
3411 0.00329482
3414 0.00758489
3417 0.00753656
3420 0.00695268
3423 0.00453966
3426 0.00771569
3429 0.00636787
3432 0.00731844
3435 0.00819
3438 0.0125636
3441 0.0131115
3444 0.0134213
3447 0.0125485
3450 0.0150932
3453 0.0172984
3456 0.0171826
3459 0.0131007
3462 0.0180085
3465 0.016478
3468 0.0224225
3471 0.0152142
3474 0.0142951
3477 0.0180186
3480 0.0245226
3483 0.0183908
3486 0.0118487
3487 0.000400107