File: constrainednmf/example_data/BaTiO3_xrd_ramp/BTO_300K_tth.xy
0.000000000000000000e+00 0.000286767
3 0.00039434
6 0.000624171
9 0.00260179
12 0.0116867
15 0.0135477
18 0.0128776
21 0.0121788
24 0.0125899
27 0.0125103
30 0.0101649
33 0.00411994
36 0.0028996
39 0.00291198
42 0.00303465
45 0.00312223
48 0.0030263
51 0.00302457
54 0.00310935
57 0.0032079
60 0.0032272
63 0.00327635
66 0.00331222
69 0.00334717
72 0.00340898
75 0.00351311
78 0.00358546
81 0.00374091
84 0.00379697
87 0.0038437
90 0.00377681
93 0.00371421
96 0.00370731
99 0.00363635
102 0.0035766
105 0.00359719
108 0.00357107
111 0.00354401
114 0.00356921
117 0.0034914
120 0.00347458
123 0.00341041
126 0.00326144
129 0.00342992
132 0.00341885
135 0.0033658
138 0.00331976
141 0.00326407
144 0.00328538
147 0.00326297
150 0.00316234
153 0.00313078
156 0.00306412
159 0.00316291
162 0.00310082
165 0.00302369
168 0.00300574
171 0.00293578
174 0.0028893
177 0.00291383
180 0.00281373
183 0.00279709
186 0.00275809
189 0.00275177
192 0.00271282
195 0.00262132
198 0.00259914
201 0.00254754
204 0.00252893
207 0.00252317
210 0.00248579
213 0.00249249
216 0.0024813
219 0.0023393
222 0.00252199
225 0.0023542
228 0.00238916
231 0.00247242
234 0.00236453
237 0.00238964
240 0.00242196
243 0.00240876
246 0.00246325
249 0.00248654
252 0.00247532
255 0.00241258
258 0.00249394
261 0.00246674
264 0.00243091
267 0.00252426
270 0.00247015
273 0.00252711
276 0.0025564
279 0.00271246
282 0.00283626
285 0.00285951
288 0.00282861
291 0.00289048
294 0.00288305
297 0.0027282
300 0.00249878
303 0.00245352
306 0.00234539
309 0.00231266
312 0.00235929
315 0.00239373
318 0.00238397
321 0.00261933
324 0.00335545
327 0.00674438
330 0.0353487
333 0.102353
336 0.0710727
339 0.00979954
342 0.0031846
345 0.00214494
348 0.00181403
351 0.00153714
354 0.00162479
357 0.00267187
360 0.00450723
363 0.00372627
366 0.00215843
369 0.0012075
372 0.00102806
375 0.000944575
378 0.000889429
381 0.00095861
384 0.000880504
387 0.00100771
390 0.00104318
393 0.000894129
396 0.000962889
399 0.000934736
402 0.00101415
405 0.00111719
408 0.00101323
411 0.00130099
414 0.00155353
417 0.00164585
420 0.00147407
423 0.00148863
426 0.00174721
429 0.00137389
432 0.00148196
435 0.00158594
438 0.0017951
441 0.00195861
444 0.00246327
447 0.0027159
450 0.00326817
453 0.00388576
456 0.00505709
459 0.00681572
462 0.0101833
465 0.0207637
468 0.0827868
471 0.653871
474 0.826646
477 0.142878
480 0.0248152
483 0.0106258
486 0.00665009
489 0.0048744
492 0.00358084
495 0.00281429
498 0.00210279
501 0.00191326
504 0.00175067
507 0.00235952
510 0.00285503
513 0.00234477
516 0.00187653
519 0.00115966
522 0.000598675
525 0.000558749
528 0.00055694
531 0.000475435
534 0.000360502
537 0.000244344
540 0.000504311
543 0.00035616
546 0.000480403
549 0.000419943
552 0.000645135
555 0.000655116
558 0.000942607
561 0.00144178
564 0.0018129
567 0.00249054
570 0.00384116
573 0.00991482
576 0.0598783
579 0.372713
582 0.134309
585 0.0151009
588 0.00506428
591 0.00274985
594 0.00207549
597 0.00142358
600 0.000993245
603 0.000932377
606 0.000664912
609 0.000714414
612 0.000690317
615 0.000744927
618 0.000709829
621 0.00107484
624 0.00216972
627 0.00207908
630 0.00160296
633 0.00171289
636 0.00175238
639 0.00162831
642 0.00182458
645 0.00194038
648 0.0024482
651 0.00364426
654 0.00542315
657 0.0088552
660 0.0188156
663 0.0746745
666 0.191276
669 0.238621
672 0.328451
675 0.0738996
678 0.0166422
681 0.00748994
684 0.00467867
687 0.00379978
690 0.00343492
693 0.00320065
696 0.00218788
699 0.00156299
702 0.00110484
705 0.000998366
708 0.0010188
711 0.000685318
714 0.000772021
717 0.00074256
720 0.0009866
723 0.00114188
726 0.00114456
729 0.00120086
732 0.00170344
735 0.0021383
738 0.00386978
741 0.0100336
744 0.0451449
747 0.0896037
750 0.121123
753 0.0442857
756 0.00785173
759 0.00300536
762 0.00163076
765 0.00126612
768 0.00108222
771 0.00097488
774 0.00111997
777 0.00104201
780 0.00118162
783 0.00123531
786 0.00152335
789 0.00198559
792 0.00205321
795 0.00250593
798 0.00307553
801 0.00390407
804 0.00556484
807 0.00816263
810 0.0145294
813 0.0377094
816 0.179223
819 0.451311
822 0.539756
825 0.108812
828 0.023264
831 0.0101731
834 0.00640399
837 0.00446995
840 0.00328128
843 0.00242828
846 0.00205639
849 0.00168435
852 0.00129501
855 0.00119312
858 0.000910609
861 0.00112924
864 0.000902497
867 0.000758018
870 0.000661665
873 0.000500129
876 0.000450814
879 0.000515003
882 0.000880125
885 0.00113146
888 0.000904625
891 0.000628023
894 0.00043322
897 0.000615181
900 0.000262965
903 0.00037191
906 0.000409893
909 0.000342371
912 0.000550436
915 0.000675827
918 0.000694543
921 0.000917856
924 0.00155138
927 0.00190612
930 0.00279099
933 0.0038912
936 0.00710322
939 0.0163291
942 0.0613595
945 0.25392
948 0.296567
951 0.166429
954 0.0336293
957 0.00979675
960 0.00524642
963 0.00319278
966 0.00241052
969 0.00174688
972 0.00161549
975 0.00189423
978 0.00183467
981 0.00171785
984 0.00140938
987 0.00139624
990 0.00172439
993 0.00286427
996 0.00655429
999 0.0168297
1002 0.052736
1005 0.0987836
1008 0.059218
1011 0.0149878
1014 0.00406194
1017 0.00189307
1020 0.00142109
1023 0.00104901
1026 0.00113265
1029 0.0011132
1032 0.00165256
1035 0.00190691
1038 0.00274421
1041 0.00342034
1044 0.00553179
1047 0.0105636
1050 0.0287671
1053 0.0979888
1056 0.125485
1059 0.139187
1062 0.22797
1065 0.114788
1068 0.024589
1071 0.00934775
1074 0.00511013
1077 0.00375618
1080 0.00269531
1083 0.00262602
1086 0.00228615
1089 0.00212838
1092 0.002422
1095 0.00300514
1098 0.00431232
1101 0.00932464
1104 0.0320544
1107 0.0698309
1110 0.0754963
1113 0.117275
1116 0.0778722
1119 0.0154425
1122 0.0050196
1125 0.00243347
1128 0.00172314
1131 0.00120036
1134 0.000977053
1137 0.000761743
1140 0.000963547
1143 0.0011386
1146 0.00143987
1149 0.00246606
1152 0.00429569
1155 0.0130937
1158 0.0659907
1161 0.173916
1164 0.0556607
1167 0.00980324
1170 0.00355426
1173 0.00196611
1176 0.00128609
1179 0.00072704
1182 0.000804346
1185 0.00104554
1188 0.000998609
1191 0.0010603
1194 0.00156282
1197 0.0026528
1200 0.00610076
1203 0.0204135
1206 0.0320158
1209 0.0398536
1212 0.0325502
1215 0.0108517
1218 0.00357312
1221 0.00271115
1224 0.00234518
1227 0.00236102
1230 0.00289867
1233 0.00353408
1236 0.00466641
1239 0.00688381
1242 0.0115801
1245 0.0252981
1248 0.0898702
1251 0.219082
1254 0.295862
1257 0.275965
1260 0.0862927
1263 0.0213521
1266 0.00968361
1269 0.00575628
1272 0.00343227
1275 0.00263823
1278 0.00173089
1281 0.00129184
1284 0.000893712
1287 0.000871123
1290 0.000407194
1293 0.000531314
1296 0.000748173
1299 0.000370483
1302 0.000412337
1305 0.000410689
1308 0.000394518
1311 0.000645531
1314 0.000622091
1317 0.000447156
1320 0.00106396
1323 0.00137146
1326 0.0021555
1329 0.0062042
1332 0.0164815
1335 0.018134
1338 0.0173383
1341 0.019186
1344 0.0331405
1347 0.0353754
1350 0.00950646
1353 0.00330341
1356 0.00225152
1359 0.00146829
1362 0.00145831
1365 0.00189791
1368 0.00292721
1371 0.00628555
1374 0.0152831
1377 0.0224698
1380 0.0406012
1383 0.0555059
1386 0.0459709
1389 0.0209222
1392 0.00616782
1395 0.00294923
1398 0.00243653
1401 0.00268997
1404 0.00370935
1407 0.00580393
1410 0.0111694
1413 0.0319042
1416 0.0590532
1419 0.0845228
1422 0.100204
1425 0.114859
1428 0.107772
1431 0.0284656
1434 0.00994059
1437 0.00560682
1440 0.00392765
1443 0.00318695
1446 0.003165
1449 0.00327878
1452 0.00537936
1455 0.0127854
1458 0.0396841
1461 0.0619612
1464 0.0454167
1467 0.026343
1470 0.00742091
1473 0.00389667
1476 0.00306997
1479 0.00344152
1482 0.00428996
1485 0.00624994
1488 0.0124983
1491 0.0360465
1494 0.0642546
1497 0.0642489
1500 0.0815713
1503 0.112016
1506 0.0734818
1509 0.0200719
1512 0.00790723
1515 0.00483958
1518 0.00368487
1521 0.00358998
1524 0.00411829
1527 0.0082365
1530 0.0217524
1533 0.025337
1536 0.0264983
1539 0.0388767
1542 0.0335674
1545 0.0103174
1548 0.00374753
1551 0.00224408
1554 0.00226629
1557 0.00203043
1560 0.00296722
1563 0.00484601
1566 0.0106123
1569 0.0350814
1572 0.0949707
1575 0.088809
1578 0.0330115
1581 0.00818909
1584 0.0037404
1587 0.00232785
1590 0.00190651
1593 0.00123081
1596 0.00112774
1599 0.00117052
1602 0.00115841
1605 0.00101926
1608 0.000989531
1611 0.000737506
1614 0.000972901
1617 0.0012368
1620 0.00115774
1623 0.002142
1626 0.00275064
1629 0.00355495
1632 0.0070133
1635 0.0187938
1638 0.0497206
1641 0.0590613
1644 0.0781851
1647 0.101063
1650 0.0331603
1653 0.0101722
1656 0.00551009
1659 0.00397696
1662 0.00388299
1665 0.0046048
1668 0.00644681
1671 0.01105
1674 0.0154307
1677 0.0177247
1680 0.0163073
1683 0.0160114
1686 0.00887312
1689 0.00576667
1692 0.00607068
1695 0.00879049
1698 0.018926
1701 0.0350454
1704 0.0592922
1707 0.0943933
1710 0.115392
1713 0.119524
1716 0.117728
1719 0.0589959
1722 0.0188587
1725 0.010013
1728 0.00785469
1731 0.0101317
1734 0.0148628
1737 0.0145023
1740 0.0178308
1743 0.0279075
1746 0.0278859
1749 0.028875
1752 0.0153808
1755 0.00462641
1758 0.00257706
1761 0.00154847
1764 0.000819062
1767 0.000966711
1770 0.000972576
1773 0.000778606
1776 0.000648645
1779 0.000523001
1782 0.000525246
1785 0.000602149
1788 0.00112558
1791 0.00147036
1794 0.00309803
1797 0.00718575
1800 0.0122968
1803 0.022885
1806 0.0301128
1809 0.0363855
1812 0.0300752
1815 0.0139767
1818 0.00608856
1821 0.00597911
1824 0.00811143
1827 0.0201901
1830 0.0375437
1833 0.03642
1836 0.0357033
1839 0.0415336
1842 0.0668091
1845 0.063384
1848 0.0209522
1851 0.00736516
1854 0.00374928
1857 0.00252882
1860 0.00168953
1863 0.00130016
1866 0.000854031
1869 0.000598863
1872 0.000273177
1875 0.000734479
1878 0.000716107
1881 0.00121489
1884 0.00105396
1887 0.00212925
1890 0.0042969
1893 0.0118368
1896 0.0243074
1899 0.023334
1902 0.0177839
1905 0.0157222
1908 0.00836622
1911 0.00311788
1914 0.00235099
1917 0.00308169
1920 0.00705577
1923 0.0106577
1926 0.0155944
1929 0.0153732
1932 0.0167234
1935 0.0143376
1938 0.00601597
1941 0.00397492
1944 0.00479141
1947 0.0103629
1950 0.0216109
1953 0.0329291
1956 0.0521566
1959 0.070636
1962 0.0510186
1965 0.0272817
1968 0.0114599
1971 0.00634879
1974 0.00696673
1977 0.0129004
1980 0.0202562
1983 0.0203459
1986 0.023209
1989 0.0303155
1992 0.0274722
1995 0.0160251
1998 0.00745146
2001 0.00739875
2004 0.00867633
2007 0.0124934
2010 0.0260257
2013 0.0499737
2016 0.0483477
2019 0.0399212
2022 0.0261725
2025 0.0119202
2028 0.00719175
2031 0.00621423
2034 0.0049616
2037 0.00490001
2040 0.00426454
2043 0.00490813
2046 0.00557396
2049 0.00890747
2052 0.00937686
2055 0.00901186
2058 0.0151899
2061 0.0232477
2064 0.0377759
2067 0.0401631
2070 0.0448701
2073 0.0609344
2076 0.0623452
2079 0.0358789
2082 0.0129683
2085 0.00608345
2088 0.00338984
2091 0.00253779
2094 0.00259815
2097 0.00196172
2100 0.00168125
2103 0.00242297
2106 0.00262283
2109 0.00480097
2112 0.01111
2115 0.0128127
2118 0.0121482
2121 0.0122183
2124 0.0130096
2127 0.0168967
2130 0.0272317
2133 0.0270266
2136 0.0128752
2139 0.010378
2142 0.0111592
2145 0.0129901
2148 0.0164395
2151 0.0213874
2154 0.0195086
2157 0.0186319
2160 0.0140166
2163 0.00731147
2166 0.00741618
2169 0.0144966
2172 0.0264624
2175 0.0334952
2178 0.0364399
2181 0.0296276
2184 0.0261659
2187 0.0141852
2190 0.00540676
2193 0.00388791
2196 0.00584411
2199 0.00912111
2202 0.00975683
2205 0.0132066
2208 0.0126421
2211 0.00497229
2214 0.00436626
2217 0.00841766
2220 0.0121632
2223 0.0110043
2226 0.0109805
2229 0.0120729
2232 0.0172242
2235 0.0271218
2238 0.0172623
2241 0.00727927
2244 0.00677429
2247 0.00808896
2250 0.0111789
2253 0.0127901
2256 0.0138265
2259 0.013459
2262 0.0107427
2265 0.00769942
2268 0.0119969
2271 0.0159946
2274 0.0148405
2277 0.0147691
2280 0.0176274
2283 0.0254787
2286 0.0278772
2289 0.0179122
2292 0.0057736
2295 0.00261178
2298 0.00137284
2301 0.000989003
2304 0.000354464
2307 0.000486327
2310 0.000245851
2313 0.000340076
2316 0.000430135
2319 0.00110857
2322 0.00191668
2325 0.00437262
2328 0.0109118
2331 0.0120651
2334 0.00525268
2337 0.00265504
2340 0.00263737
2343 0.00518966
2346 0.00639003
2349 0.00641039
2352 0.00610089
2355 0.00828285
2358 0.0113514
2361 0.0132621
2364 0.0109888
2367 0.0112262
2370 0.0172195
2373 0.0313768
2376 0.0412576
2379 0.0456825
2382 0.0393539
2385 0.0282614
2388 0.0205255
2391 0.0116858
2394 0.00972217
2397 0.011853
2400 0.0129535
2403 0.0105235
2406 0.010671
2409 0.0134835
2412 0.011717
2415 0.0108623
2418 0.0117996
2421 0.011932
2424 0.0133985
2427 0.0161983
2430 0.0149059
2433 0.0148964
2436 0.0109447
2439 0.00887103
2442 0.00853067
2445 0.0082922
2448 0.00904596
2451 0.0104207
2454 0.0134323
2457 0.0182298
2460 0.0176577
2463 0.019258
2466 0.0233554
2469 0.0280659
2472 0.0292324
2475 0.0325061
2478 0.0379693
2481 0.0283982
2484 0.0119876
2487 0.00589737
2490 0.00392355
2493 0.00339511
2496 0.00301625
2499 0.00292439
2502 0.00368839
2505 0.00534442
2508 0.0122008
2511 0.017873
2514 0.0189923
2517 0.0230066
2520 0.029046
2523 0.0269574
2526 0.0190056
2529 0.00901934
2532 0.00547061
2535 0.0056525
2538 0.00645139
2541 0.00751807
2544 0.00715835
2547 0.00772266
2550 0.00710297
2553 0.00589722
2556 0.00533204
2559 0.00525248
2562 0.00502028
2565 0.00676169
2568 0.0101532
2571 0.0129413
2574 0.00995466
2577 0.00795798
2580 0.00922896
2583 0.0116603
2586 0.0115498
2589 0.0122492
2592 0.0120859
2595 0.00723011
2598 0.00240638
2601 0.00141675
2604 0.000838395
2607 0.000438147
2610 0.000835914
2613 0.0011244
2616 0.00175467
2619 0.00372836
2622 0.00584109
2625 0.00740938
2628 0.00774213
2631 0.00917169
2634 0.010663
2637 0.0117973
2640 0.0139899
2643 0.0166085
2646 0.0202332
2649 0.022021
2652 0.0212158
2655 0.0239821
2658 0.0246072
2661 0.0132213
2664 0.00455089
2667 0.00203676
2670 0.00131401
2673 0.00131593
2676 0.00104814
2679 0.000530783
2682 0.000491656
2685 0.00106708
2688 0.000795049
2691 0.0011176
2694 0.00159492
2697 0.00239224
2700 0.00342774
2703 0.00561319
2706 0.00557842
2709 0.00620728
2712 0.00764551
2715 0.00791209
2718 0.00977103
2721 0.0115463
2724 0.0144008
2727 0.0131228
2730 0.0131735
2733 0.0179283
2736 0.0226101
2739 0.021929
2742 0.0181238
2745 0.0173858
2748 0.0102094
2751 0.00560303
2754 0.00408718
2757 0.00542899
2760 0.00686558
2763 0.00713839
2766 0.00589453
2769 0.00701249
2772 0.0100224
2775 0.0111956
2778 0.0154136
2781 0.017553
2784 0.0137061
2787 0.0126144
2790 0.0087979
2793 0.00478653
2796 0.00405198
2799 0.00441907
2802 0.00534223
2805 0.00662138
2808 0.00718753
2811 0.00841046
2814 0.0105705
2817 0.0122822
2820 0.0117682
2823 0.0102502
2826 0.00562153
2829 0.0015655
2832 0.000507749
2835 0.000284597
2838 0.000919395
2841 0.00163151
2844 0.00280314
2847 0.00287841
2850 0.00370205
2853 0.0058529
2856 0.0057941
2859 0.00560461
2862 0.00624051
2865 0.00972501
2868 0.0109526
2871 0.00671128
2874 0.00532667
2877 0.00424644
2880 0.00561672
2883 0.00827367
2886 0.0114377
2889 0.0141776
2892 0.0134539
2895 0.0128674
2898 0.0153958
2901 0.0188243
2904 0.022816
2907 0.0219567
2910 0.0148045
2913 0.00868496
2916 0.00721315
2919 0.00735445
2922 0.00691051
2925 0.00596489
2928 0.00566406
2931 0.00606525
2934 0.00759765
2937 0.00689754
2940 0.00606194
2943 0.00641888
2946 0.0061264
2949 0.00502301
2952 0.00427794
2955 0.00525332
2958 0.00533875
2961 0.00574555
2964 0.00589866
2967 0.00722354
2970 0.00692597
2973 0.00619855
2976 0.00753248
2979 0.00693548
2982 0.00552771
2985 0.00545393
2988 0.0034005
2991 0.000885089
2994 0.00124789
2997 0.00161554
3000 0.00193314
3003 0.0017604
3006 0.00185308
3009 0.00261005
3012 0.00206111
3015 0.00308569
3018 0.0053489
3021 0.00685925
3024 0.00817366
3027 0.00685301
3030 0.00612578
3033 0.00610608
3036 0.00573112
3039 0.00796339
3042 0.00722427
3045 0.00579455
3048 0.00492177
3051 0.00482144
3054 0.00569234
3057 0.00508863
3060 0.00810265
3063 0.0107719
3066 0.00885865
3069 0.00705783
3072 0.00672962
3075 0.00809618
3078 0.00995741
3081 0.0091573
3084 0.00619491
3087 0.00662992
3090 0.00721065
3093 0.0075496
3096 0.0104965
3099 0.0118796
3102 0.00835455
3105 0.00637626
3108 0.00507034
3111 0.00720544
3114 0.00705335
3117 0.0085117
3120 0.0115728
3123 0.0127635
3126 0.0137993
3129 0.0133362
3132 0.0119907
3135 0.0107249
3138 0.0103638
3141 0.00695136
3144 0.00349705
3147 0.00283682
3150 0.00234074
3153 0.00255326
3156 0.00354591
3159 0.00526803
3162 0.00779974
3165 0.00808268
3168 0.00831249
3171 0.0079541
3174 0.00661313
3177 0.00695761
3180 0.0061524
3183 0.00838007
3186 0.00808962
3189 0.00976855
3192 0.01138
3195 0.012345
3198 0.0112171
3201 0.0142118
3204 0.0158671
3207 0.0134642
3210 0.0122427
3213 0.0091447
3216 0.00505795
3219 0.00283934
3222 0.00239957
3225 0.00401805
3228 0.00352884
3231 0.00245373
3234 0.00233494
3237 0.00218443
3240 0.00325807
3243 0.0031742
3246 0.000000000000000000e+00
3249 0.00096422
3252 0.00156451
3255 0.00388327
3258 0.00694079
3261 0.0054293
3264 0.00619621
3267 0.00865642
3270 0.00796757
3273 0.00510693
3276 0.00743433
3279 0.00868415
3282 0.00802625
3285 0.00404891
3288 0.00241289
3291 0.000582721
3294 0.00283281
3297 0.00272564
3300 0.00185159
3303 0.00341253
3306 0.00322745
3309 0.00195212
3312 0.00322274
3315 0.00408302
3318 0.00320165
3321 0.00321741
3324 0.00461539
3327 0.00465618
3330 0.00544938
3333 0.00681951
3336 0.00655396
3339 0.00874098
3342 0.00700565
3345 0.00932024
3348 0.0108593
3351 0.0107096
3354 0.00965338
3357 0.00484787
3360 0.0045495
3363 0.0069173
3366 0.00682259
3369 0.00628194
3372 0.00711386
3375 0.00349703
3378 0.00513375
3381 0.00494226
3384 0.00545582
3387 0.00956328
3390 0.00664517
3393 0.00701982
3396 0.00545004
3399 0.00467739
3402 0.00476546
3405 0.0101297
3408 0.0035153
3411 0.00597852
3414 0.00542542
3417 0.00346535
3420 0.0042565
3423 0.00441183
3426 0.00758861
3429 0.0048994
3432 0.00289262
3435 0.00824406
3438 0.00548559
3441 0.00858491
3444 0.00987884
3447 0.00807677
3450 0.0119436
3453 0.0133807
3456 0.0135169
3459 0.0102462
3462 0.00861259
3465 0.0159252
3468 0.0110734
3471 0.00789957
3474 0.0100626
3477 0.0119055
3480 0.0151317
3483 0.00955157
3486 0.0300765
3487 0.0206107