File: constrainednmf/example_data/BaTiO3_xrd_ramp/BTO_245K_tth.xy
0.000000000000000000e+00 8.87406e-05
3 0.000228722
6 0.000475817
9 0.00223524
12 0.0101647
15 0.011735
18 0.0112198
21 0.0105761
24 0.011025
27 0.0109904
30 0.00903135
33 0.00380263
36 0.00281657
39 0.00282556
42 0.00297547
45 0.00297977
48 0.00296741
51 0.0029758
54 0.00302947
57 0.00306119
60 0.00310851
63 0.00316578
66 0.00316495
69 0.00321438
72 0.00327378
75 0.00335091
78 0.00342556
81 0.00356658
84 0.00360188
87 0.00360317
90 0.00358285
93 0.00356143
96 0.00346844
99 0.00342855
102 0.00335322
105 0.00338846
108 0.00338799
111 0.00326863
114 0.00333632
117 0.00326273
120 0.00324721
123 0.00317602
126 0.00304467
129 0.00311663
132 0.00314392
135 0.00307863
138 0.0030471
141 0.00301263
144 0.00296304
147 0.00294938
150 0.00288336
153 0.00285781
156 0.00283782
159 0.00284856
162 0.00276029
165 0.00272958
168 0.00267257
171 0.0026507
174 0.00258017
177 0.00252658
180 0.00247875
183 0.00242085
186 0.00236245
189 0.00231017
192 0.00234015
195 0.0022755
198 0.00234206
201 0.00218544
204 0.00219012
207 0.00211658
210 0.00218446
213 0.00215046
216 0.00212379
219 0.00209697
222 0.00199771
225 0.00204557
228 0.00202629
231 0.00200416
234 0.00200694
237 0.00198053
240 0.00196354
243 0.00199191
246 0.00198473
249 0.00204026
252 0.00200774
255 0.00200844
258 0.00196065
261 0.0020652
264 0.00206152
267 0.00204115
270 0.00208374
273 0.00210095
276 0.00207078
279 0.00222732
282 0.00229102
285 0.00238942
288 0.00243741
291 0.00244998
294 0.00241104
297 0.00227874
300 0.00209194
303 0.00201028
306 0.00191092
309 0.00199026
312 0.00193057
315 0.00197334
318 0.00207297
321 0.00227976
324 0.00290145
327 0.00546334
330 0.0271462
333 0.108269
336 0.0653921
339 0.00974395
342 0.00317401
345 0.00188332
348 0.00159471
351 0.00133518
354 0.0013723
357 0.00206238
360 0.00418999
363 0.00348225
366 0.00207607
369 0.00102244
372 0.000783953
375 0.000677491
378 0.000705612
381 0.000737842
384 0.000775411
387 0.000811446
390 0.00074731
393 0.00070536
396 0.000692116
399 0.000805107
402 0.000883565
405 0.000737189
408 0.00087908
411 0.00105232
414 0.00132421
417 0.00143575
420 0.00127005
423 0.0012855
426 0.00140543
429 0.00121385
432 0.00128716
435 0.00130276
438 0.00145322
441 0.00163952
444 0.00205579
447 0.00238953
450 0.00283059
453 0.00347456
456 0.00455153
459 0.00621125
462 0.00931244
465 0.0190959
468 0.0773804
471 0.560859
474 0.85719
477 0.132163
480 0.0237525
483 0.0101979
486 0.00642249
489 0.00449063
492 0.00342814
495 0.00245988
498 0.00195617
501 0.0015467
504 0.00166858
507 0.00191475
510 0.0025052
513 0.00218294
516 0.00194221
519 0.00099937
522 0.000580657
525 0.000322785
528 0.000290478
531 0.000217365
534 0.000158419
537 0.000287275
540 0.000230851
543 0.000213135
546 0.000164455
549 0.000353671
552 0.000367751
555 0.000540793
558 0.000708461
561 0.00106248
564 0.00156815
567 0.00223103
570 0.00368733
573 0.00919732
576 0.0551081
579 0.343545
582 0.142185
585 0.0157175
588 0.00509047
591 0.00285543
594 0.00229832
597 0.00134113
600 0.00103269
603 0.000638454
606 0.000793318
609 0.000542018
612 0.000708792
615 0.000636286
618 0.000840229
621 0.00113537
624 0.00186341
627 0.00195641
630 0.00145994
633 0.00140999
636 0.00165234
639 0.00154648
642 0.00163744
645 0.00166279
648 0.00224746
651 0.00310639
654 0.00469508
657 0.00761689
660 0.0152683
663 0.0446488
666 0.194305
669 0.297691
672 0.230802
675 0.0920622
678 0.0182968
681 0.00725879
684 0.00424717
687 0.00311924
690 0.003091
693 0.00320512
696 0.00194578
699 0.00125875
702 0.000931899
705 0.000650627
708 0.000751902
711 0.00056718
714 0.000513122
717 0.00049955
720 0.000541689
723 0.000771678
726 0.00081077
729 0.000745482
732 0.00111974
735 0.00170499
738 0.00313825
741 0.00772405
744 0.0329948
747 0.105636
750 0.103019
753 0.0456858
756 0.00809934
759 0.00263566
762 0.00139426
765 0.000933737
768 0.000726571
771 0.000671592
774 0.000782676
777 0.000707005
780 0.000526956
783 0.000843775
786 0.0010761
789 0.00122055
792 0.00150007
795 0.00197963
798 0.00239792
801 0.00328502
804 0.00465219
807 0.00703475
810 0.0127218
813 0.0316277
816 0.141727
819 0.484752
822 0.473648
825 0.123828
828 0.0244151
831 0.00979269
834 0.005743
837 0.0041353
840 0.00277336
843 0.00197615
846 0.00172348
849 0.00115715
852 0.000948974
855 0.000851466
858 0.000730913
861 0.000481643
864 0.000617028
867 0.000604689
870 0.000303569
873 0.000280676
876 0.000122705
879 0.000397819
882 0.000443103
885 0.000685241
888 0.000532858
891 0.000585687
894 0.000312396
897 0.000391923
900 0.00024107
903 0.000221682
906 0.000165193
909 0.000307434
912 0.000405235
915 0.000364265
918 0.000405232
921 0.000738723
924 0.00117525
927 0.00162909
930 0.00238474
933 0.00356226
936 0.00643684
939 0.0155971
942 0.0642756
945 0.18229
948 0.33895
951 0.161103
954 0.0301415
957 0.00992975
960 0.00497507
963 0.00305423
966 0.00192951
969 0.00154118
972 0.00127939
975 0.00152246
978 0.00178475
981 0.00167814
984 0.00138764
987 0.0013858
990 0.00151459
993 0.00259265
996 0.00497771
999 0.0145206
1002 0.0515037
1005 0.0975402
1008 0.0565681
1011 0.0167908
1014 0.00471818
1017 0.00208341
1020 0.00129788
1023 0.0011888
1026 0.00118719
1029 0.00119337
1032 0.00136008
1035 0.00174087
1038 0.00225395
1041 0.00314522
1044 0.00510594
1047 0.00867988
1050 0.0188809
1053 0.0569964
1056 0.165573
1059 0.19045
1062 0.139843
1065 0.130196
1068 0.0327184
1071 0.0104165
1074 0.00522551
1077 0.00371163
1080 0.00302448
1083 0.00223486
1086 0.0021664
1089 0.00222674
1092 0.0023
1095 0.00297788
1098 0.00413667
1101 0.00712563
1104 0.0189409
1107 0.0654347
1110 0.110406
1113 0.0856327
1116 0.0767191
1119 0.0210517
1122 0.00568938
1125 0.00274478
1128 0.00165437
1131 0.00107114
1134 0.000912677
1137 0.00085354
1140 0.000891067
1143 0.00099442
1146 0.00161049
1149 0.00197155
1152 0.00397339
1155 0.0119573
1158 0.0615841
1161 0.150323
1164 0.0722108
1167 0.0114571
1170 0.00397684
1173 0.00211877
1176 0.0014088
1179 0.00078991
1182 0.000708768
1185 0.000659022
1188 0.000808883
1191 0.00104898
1194 0.00126204
1197 0.00238212
1200 0.00558541
1203 0.0166242
1206 0.0311444
1209 0.0408478
1212 0.0330302
1215 0.0111619
1218 0.00354041
1221 0.00244404
1224 0.00208479
1227 0.00237514
1230 0.00264709
1233 0.00319286
1236 0.00451245
1239 0.00634868
1242 0.010604
1245 0.0222269
1248 0.0731312
1251 0.195457
1254 0.310167
1257 0.26782
1260 0.097001
1263 0.0235595
1266 0.010013
1269 0.00541557
1272 0.00361888
1275 0.00249452
1278 0.00186946
1281 0.00145401
1284 0.000869507
1287 0.000814239
1290 0.000398456
1293 0.000380662
1296 9.60715e-05
1299 0.000160566
1302 0.000304397
1305 0.000291414
1308 0.00023039
1311 0.000298264
1314 0.000385565
1317 0.000381722
1320 0.000800329
1323 0.00102315
1326 0.00170985
1329 0.00341334
1332 0.00796385
1335 0.0209664
1338 0.0352179
1341 0.0248529
1344 0.0174214
1347 0.0254206
1350 0.0166333
1353 0.00454847
1356 0.00211973
1359 0.00161996
1362 0.00139326
1365 0.00140024
1368 0.00225355
1371 0.00385194
1374 0.00898384
1377 0.024476
1380 0.0497942
1383 0.0541787
1386 0.0358215
1389 0.0223216
1392 0.00878226
1395 0.00344563
1398 0.00240106
1401 0.00258663
1404 0.00310447
1407 0.00448099
1410 0.00829356
1413 0.0179393
1416 0.0504112
1419 0.099451
1422 0.11711
1425 0.105173
1428 0.082572
1431 0.0422658
1434 0.0118248
1437 0.005868
1440 0.00365747
1443 0.00275515
1446 0.00252482
1449 0.00298424
1452 0.00503787
1455 0.0142981
1458 0.0284196
1461 0.0524808
1464 0.0626224
1467 0.0235086
1470 0.00672787
1473 0.00339831
1476 0.00272509
1479 0.00286871
1482 0.00345171
1485 0.00513894
1488 0.00923766
1491 0.021597
1494 0.0539001
1497 0.0926983
1500 0.0944081
1503 0.0762111
1506 0.0783387
1509 0.0264416
1512 0.00877545
1515 0.00456133
1518 0.00317161
1521 0.00270205
1524 0.00360688
1527 0.00580009
1530 0.014284
1533 0.0298672
1536 0.0373747
1539 0.0294653
1542 0.0296073
1545 0.0137455
1548 0.00391569
1551 0.00238017
1554 0.00189122
1557 0.00161713
1560 0.00219537
1563 0.00372541
1566 0.0101037
1569 0.033584
1572 0.0750209
1575 0.097359
1578 0.0402556
1581 0.00950842
1584 0.00382384
1587 0.00207586
1590 0.0017307
1593 0.000786401
1596 0.000986033
1599 0.0006503
1602 0.000608672
1605 0.000366752
1608 0.000614724
1611 0.000718837
1614 0.000631774
1617 0.000892083
1620 0.00100606
1623 0.00123353
1626 0.00227492
1629 0.00311783
1632 0.00547867
1635 0.0129847
1638 0.0375856
1641 0.0728131
1644 0.0845332
1647 0.0761386
1650 0.0462677
1653 0.0128281
1656 0.00585247
1659 0.00388228
1662 0.00297854
1665 0.00334376
1668 0.00512445
1671 0.0101729
1674 0.0136673
1677 0.0182129
1680 0.018389
1683 0.013861
1686 0.00763872
1689 0.0059258
1692 0.00481045
1695 0.00726641
1698 0.0113809
1701 0.0239393
1704 0.0600423
1707 0.0966442
1710 0.12784
1713 0.127253
1716 0.0985311
1719 0.0576852
1722 0.0278786
1725 0.0114022
1728 0.00746947
1731 0.0066371
1734 0.00892341
1737 0.0170054
1740 0.028483
1743 0.0311039
1746 0.0252697
1749 0.0163596
1752 0.0179142
1755 0.00846766
1758 0.00256489
1761 0.00164984
1764 0.000669105
1767 0.000563243
1770 0.000414438
1773 0.000214063
1776 9.03025e-05
1779 0.000120562
1782 0.000429441
1785 0.000527422
1788 0.000783364
1791 0.00108158
1794 0.00225124
1797 0.00441436
1800 0.0109942
1803 0.0236831
1806 0.0332183
1809 0.0359617
1812 0.0260707
1815 0.0150017
1818 0.00752071
1821 0.00506682
1824 0.00582847
1827 0.0107963
1830 0.0236823
1833 0.0475752
1836 0.0635236
1839 0.051878
1842 0.0389189
1845 0.0499246
1848 0.0356536
1851 0.0106693
1854 0.00445465
1857 0.00233443
1860 0.00181771
1863 0.00122886
1866 0.000567825
1869 0.000594806
1872 0.000464437
1875 0.00036174
1878 0.00037232
1881 0.00057365
1884 0.00119698
1887 0.00216449
1890 0.00593284
1893 0.00968268
1896 0.0138103
1899 0.0232967
1902 0.0298016
1905 0.0166558
1908 0.00582431
1911 0.0029424
1914 0.00242834
1917 0.00282886
1920 0.00588504
1923 0.0111057
1926 0.0143645
1929 0.0179228
1932 0.0175414
1935 0.0129265
1938 0.00719694
1941 0.0039273
1944 0.0043633
1947 0.00788633
1950 0.0168571
1953 0.0322679
1956 0.056094
1959 0.0675006
1962 0.0532321
1965 0.0318312
1968 0.0134205
1971 0.00687288
1974 0.00648347
1977 0.0098264
1980 0.0171934
1983 0.0238376
1986 0.0299302
1989 0.0256327
1992 0.0257856
1995 0.0186312
1998 0.00778073
2001 0.00547499
2004 0.00777057
2007 0.0150968
2010 0.0269834
2013 0.0380501
2016 0.0569627
2019 0.047298
2022 0.021634
2025 0.0121798
2028 0.00821222
2031 0.00499674
2034 0.0055705
2037 0.00740595
2040 0.00734004
2043 0.00589235
2046 0.0043221
2049 0.00500701
2052 0.00729027
2055 0.00880271
2058 0.00980131
2061 0.0182968
2064 0.0378363
2067 0.0552922
2070 0.0605059
2073 0.053489
2076 0.0490344
2079 0.036068
2082 0.0216904
2085 0.00910258
2088 0.00458313
2091 0.00289208
2094 0.00228227
2097 0.00189119
2100 0.0018921
2103 0.0020388
2106 0.00208033
2109 0.00340222
2112 0.00520361
2115 0.0100223
2118 0.0179851
2121 0.0240469
2124 0.0210452
2127 0.0146155
2130 0.0139508
2133 0.0198617
2136 0.0201667
2139 0.0105079
2142 0.0108014
2145 0.0154637
2148 0.0201617
2151 0.0230205
2154 0.0210059
2157 0.0159542
2160 0.0126018
2163 0.00984935
2166 0.00889481
2169 0.0151805
2172 0.0188233
2175 0.0282364
2178 0.040396
2181 0.0413227
2184 0.0309168
2187 0.0129613
2190 0.00564241
2193 0.00435422
2196 0.00539359
2199 0.0095316
2202 0.0113699
2205 0.0133572
2208 0.0112884
2211 0.00739553
2214 0.00389486
2217 0.00454881
2220 0.00845896
2223 0.0159772
2226 0.020136
2229 0.0186642
2232 0.0141507
2235 0.0142958
2238 0.0188305
2241 0.0121889
2244 0.00727797
2247 0.00897685
2250 0.0111664
2253 0.0139836
2256 0.0156439
2259 0.0138551
2262 0.0105782
2265 0.007428
2268 0.00788764
2271 0.0130048
2274 0.0190725
2277 0.0254812
2280 0.0242575
2283 0.0175237
2286 0.0199012
2289 0.021656
2292 0.00966302
2295 0.00338946
2298 0.001426
2301 0.00076263
2304 0.000537171
2307 0.000525674
2310 0.00023115
2313 0.0003066
2316 0.000360213
2319 0.000950633
2322 0.00190727
2325 0.0045142
2328 0.00873306
2331 0.0105368
2334 0.0085013
2337 0.002619
2340 0.00191312
2343 0.00309064
2346 0.0059506
2349 0.0081532
2352 0.0088749
2355 0.00788795
2358 0.0074471
2361 0.00947648
2364 0.00971562
2367 0.0125604
2370 0.021273
2373 0.0313792
2376 0.040253
2379 0.0498991
2382 0.0438468
2385 0.0251962
2388 0.0159298
2391 0.0164514
2394 0.0140155
2397 0.0126219
2400 0.0125782
2403 0.0132588
2406 0.0127908
2409 0.00929258
2412 0.00902388
2415 0.0111231
2418 0.0100332
2421 0.0120511
2424 0.0162747
2427 0.0157506
2430 0.0146692
2433 0.0153428
2436 0.0106557
2439 0.00848583
2442 0.00876787
2445 0.00969602
2448 0.0107494
2451 0.00983331
2454 0.0102891
2457 0.011555
2460 0.0139869
2463 0.0218526
2466 0.030646
2469 0.0349556
2472 0.0363364
2475 0.0333019
2478 0.0277485
2481 0.0222146
2484 0.0190155
2487 0.00921587
2490 0.00460473
2493 0.00296627
2496 0.00253498
2499 0.00226383
2502 0.00266422
2505 0.004321
2508 0.00923984
2511 0.0142522
2514 0.0202085
2517 0.028016
2520 0.0275594
2523 0.0264697
2526 0.0208339
2529 0.0101003
2532 0.00636716
2535 0.00689503
2538 0.00695486
2541 0.00724312
2544 0.00663791
2547 0.0043631
2550 0.00562174
2553 0.00646512
2556 0.00674795
2559 0.00801383
2562 0.00742635
2565 0.00595312
2568 0.00523878
2571 0.00766536
2574 0.0107019
2577 0.0113224
2580 0.0123458
2583 0.0136574
2586 0.0140005
2589 0.0110748
2592 0.00866829
2595 0.00813646
2598 0.00475547
2601 0.00197917
2604 0.0006028
2607 0.000513669
2610 0.000511842
2613 0.000594321
2616 0.00160468
2619 0.00360209
2622 0.00451118
2625 0.0064146
2628 0.00836841
2631 0.00968955
2634 0.00992472
2637 0.010512
2640 0.0137441
2643 0.0167727
2646 0.0218453
2649 0.0267086
2652 0.0266183
2655 0.0246609
2658 0.0217369
2661 0.0156489
2664 0.00779162
2667 0.00281925
2670 0.00120307
2673 0.000662687
2676 0.000875874
2679 0.000741988
2682 0.000955401
2685 0.00204285
2688 0.00169945
2691 0.00178044
2694 0.000917787
2697 0.00115043
2700 0.0025865
2703 0.00426154
2706 0.00667538
2709 0.0074162
2712 0.00823604
2715 0.00860269
2718 0.00957452
2721 0.0103785
2724 0.0126364
2727 0.0156117
2730 0.0196491
2733 0.0243275
2736 0.0240729
2739 0.0216622
2742 0.0164588
2745 0.0158565
2748 0.0124244
2751 0.00977435
2754 0.00668053
2757 0.00534459
2760 0.00496684
2763 0.0058838
2766 0.00799839
2769 0.0106169
2772 0.0135792
2775 0.0139886
2778 0.0160888
2781 0.015279
2784 0.0125141
2787 0.0105713
2790 0.0121477
2793 0.0113223
2796 0.00849648
2799 0.00606454
2802 0.0051356
2805 0.00584512
2808 0.0073942
2811 0.00952737
2814 0.00898267
2817 0.0125639
2820 0.0154788
2823 0.0135547
2826 0.00770359
2829 0.00283852
2832 0.00170559
2835 0.000608494
2838 0.000700052
2841 0.00104295
2844 0.00178841
2847 0.00463545
2850 0.00555261
2853 0.0072723
2856 0.00794428
2859 0.00744304
2862 0.0083643
2865 0.00733671
2868 0.00826795
2871 0.00879434
2874 0.00723273
2877 0.00538343
2880 0.00545764
2883 0.00731643
2886 0.00967386
2889 0.0140067
2892 0.0188074
2895 0.0208252
2898 0.0212698
2901 0.0186733
2904 0.0185862
2907 0.0193842
2910 0.0169405
2913 0.0129563
2916 0.0100219
2919 0.00793741
2922 0.00768347
2925 0.00782667
2928 0.00726864
2931 0.00493439
2934 0.00530923
2937 0.00689391
2940 0.00899586
2943 0.00925114
2946 0.00690763
2949 0.00542834
2952 0.00587178
2955 0.00680422
2958 0.00674269
2961 0.00702131
2964 0.00526054
2967 0.00634563
2970 0.00568742
2973 0.00739737
2976 0.00878542
2979 0.00790263
2982 0.00814632
2985 0.00740225
2988 0.00387759
2991 0.00152334
2994 0.000309597
2997 0.000911642
3000 0.00157794
3003 0.00187735
3006 0.00252789
3009 0.00370114
3012 0.00438948
3015 0.00410639
3018 0.00423487
3021 0.00441796
3024 0.00651065
3027 0.00805857
3030 0.00800238
3033 0.00725162
3036 0.00707024
3039 0.00778494
3042 0.00798953
3045 0.00864382
3048 0.00811716
3051 0.00731608
3054 0.00568636
3057 0.00502354
3060 0.00716448
3063 0.00807889
3066 0.0102789
3069 0.0103182
3072 0.00984801
3075 0.00809446
3078 0.00877222
3081 0.00942171
3084 0.00971619
3087 0.00934814
3090 0.010863
3093 0.0074023
3096 0.00708847
3099 0.0087556
3102 0.0108824
3105 0.0076964
3108 0.00612205
3111 0.00607855
3114 0.00806419
3117 0.0107541
3120 0.0110078
3123 0.0134873
3126 0.0148776
3129 0.016828
3132 0.0159674
3135 0.0118311
3138 0.00819125
3141 0.00697399
3144 0.00548453
3147 0.00307794
3150 0.00377993
3153 0.00239728
3156 0.00281365
3159 0.00242218
3162 0.00534342
3165 0.00775492
3168 0.00977023
3171 0.00857624
3174 0.00729965
3177 0.0068999
3180 0.00699071
3183 0.00843565
3186 0.00953702
3189 0.0100443
3192 0.0121177
3195 0.0149208
3198 0.0160184
3201 0.0150157
3204 0.0145936
3207 0.013446
3210 0.0123379
3213 0.00914181
3216 0.00863511
3219 0.00452304
3222 0.00236192
3225 0.00313522
3228 0.000442858
3231 0.0035364
3234 0.00172024
3237 0.0018829
3240 0.00157595
3243 0.00124193
3246 0.00160246
3249 0.000504779
3252 0.00224638
3255 0.00335191
3258 0.00531573
3261 0.00464652
3264 0.00696203
3267 0.00689762
3270 0.00903964
3273 0.00836793
3276 0.00731666
3279 0.00668847
3282 0.00511324
3285 0.00386063
3288 0.00248575
3291 7.30423e-05
3294 0.000987688
3297 0.000504826
3300 0.00165053
3303 0.00193523
3306 0.0018994
3309 0.00244692
3312 0.00205436
3315 0.00252107
3318 0.00199251
3321 0.00418853
3324 0.00338597
3327 0.00360908
3330 0.00499073
3333 0.00625723
3336 0.00639174
3339 0.00924567
3342 0.00884381
3345 0.00827678
3348 0.00915683
3351 0.00875224
3354 0.00884313
3357 0.00746755
3360 0.00682101
3363 0.00576008
3366 0.0045215
3369 0.00262676
3372 0.00380057
3375 0.00458332
3378 0.00443989
3381 0.00407468
3384 0.00451163
3387 0.00366227
3390 0.00704289
3393 0.00372182
3396 0.00522982
3399 0.00635258
3402 0.00272769
3405 0.00444473
3408 0.0058236
3411 0.00434278
3414 0.00501847
3417 0.00502669
3420 0.000867367
3423 0.000740749
3426 0.00386671
3429 0.00259047
3432 0.000175785
3435 0.00684244
3438 0.00360995
3441 0.00570877
3444 0.00788941
3447 0.00774568
3450 0.00861285
3453 0.00555182
3456 0.0098174
3459 0.00590674
3462 0.00652537
3465 0.00594927
3468 0.00578475
3471 0.00320455
3474 0.0052368
3477 0.00863227
3480 0.0113284
3483 0.00345718
3486 0.000514444
3487 0.00188496