File: constrainednmf/example_data/BaTiO3_xrd_ramp/BTO_295K_tth.xy
0.000000000000000000e+00 0.00288782
3 0.00283804
6 0.00291754
9 0.0046554
12 0.0136028
15 0.0152717
18 0.0145298
21 0.0137374
24 0.0140743
27 0.0139246
30 0.0115504
33 0.00551254
36 0.00427453
39 0.0042246
42 0.0043045
45 0.00432884
48 0.00429128
51 0.00429782
54 0.00429028
57 0.0043496
60 0.00441597
63 0.00446858
66 0.0045034
69 0.00452583
72 0.00458225
75 0.00472423
78 0.00482409
81 0.00498063
84 0.00504315
87 0.00511061
90 0.0050575
93 0.00504083
96 0.00501943
99 0.00502952
102 0.00505997
105 0.00505114
108 0.00509557
111 0.00511535
114 0.00515178
117 0.00514433
120 0.00510375
123 0.00513676
126 0.00505171
129 0.00517898
132 0.00517508
135 0.00519186
138 0.0052136
141 0.00530871
144 0.00524125
147 0.00523752
150 0.00525389
153 0.00524072
156 0.00526366
159 0.00524761
162 0.00526838
165 0.00518492
168 0.00516321
171 0.00521782
174 0.00522608
177 0.0051913
180 0.00520893
183 0.00509757
186 0.00514854
189 0.00510587
192 0.00513108
195 0.00512745
198 0.00506256
201 0.00506559
204 0.00513978
207 0.00510739
210 0.00505808
213 0.00502694
216 0.0049934
219 0.0050164
222 0.00496221
225 0.00497337
228 0.00502905
231 0.00505653
234 0.00501253
237 0.00511036
240 0.00496268
243 0.0050149
246 0.00515409
249 0.00518744
252 0.00513805
255 0.00511693
258 0.00517179
261 0.00510056
264 0.00514731
267 0.00513477
270 0.00516495
273 0.00518247
276 0.00523484
279 0.00537661
282 0.0054354
285 0.00544043
288 0.00546204
291 0.00552768
294 0.00546468
297 0.00526805
300 0.00510703
303 0.00500302
306 0.00487816
309 0.00473393
312 0.0049189
315 0.00484545
318 0.00490687
321 0.00502932
324 0.00575154
327 0.00908439
330 0.0369403
333 0.105057
336 0.0728483
339 0.0122407
342 0.0056326
345 0.00464542
348 0.00432103
351 0.00396166
354 0.004053
357 0.00492888
360 0.00695205
363 0.00608463
366 0.00452787
369 0.00373911
372 0.00334388
375 0.00323253
378 0.00312987
381 0.00317409
384 0.00313487
387 0.00323572
390 0.00312142
393 0.00318285
396 0.00322013
399 0.0032192
402 0.00311033
405 0.00317337
408 0.00325099
411 0.00344868
414 0.00369296
417 0.00365492
420 0.00339128
423 0.00345558
426 0.00384791
429 0.00354669
432 0.00349852
435 0.00375557
438 0.00385627
441 0.00393768
444 0.00438417
447 0.00462974
450 0.00526809
453 0.00601837
456 0.00689521
459 0.00863982
462 0.0121248
465 0.022413
468 0.0843246
471 0.645933
474 0.828875
477 0.144006
480 0.0265569
483 0.0125069
486 0.00859265
489 0.00663457
492 0.00556924
495 0.00462291
498 0.00399794
501 0.00360975
504 0.00389363
507 0.00417584
510 0.00464731
513 0.00421754
516 0.00379913
519 0.00312872
522 0.00261576
525 0.00248273
528 0.00231454
531 0.00223064
534 0.0021916
537 0.00232528
540 0.00235436
543 0.00231857
546 0.002436
549 0.00241416
552 0.00256273
555 0.00260139
558 0.00264187
561 0.0031471
564 0.00369012
567 0.00424707
570 0.0058609
573 0.0115626
576 0.06123
579 0.370971
582 0.136781
585 0.0171501
588 0.0070258
591 0.00489749
594 0.00389317
597 0.00347194
600 0.0030532
603 0.00291884
606 0.00271709
609 0.00273078
612 0.00259028
615 0.00281453
618 0.00294673
621 0.00333676
624 0.00420068
627 0.0040008
630 0.00374565
633 0.00365213
636 0.00383266
639 0.00378402
642 0.00360414
645 0.00380214
648 0.00458864
651 0.00564238
654 0.00730337
657 0.0106071
660 0.0207052
663 0.0737844
666 0.192823
669 0.245591
672 0.322846
675 0.0773728
678 0.0188808
681 0.00958923
684 0.00671347
687 0.00579442
690 0.00564428
693 0.00518761
696 0.00435126
699 0.00366938
702 0.00348679
705 0.00315106
708 0.00320437
711 0.00268903
714 0.00288004
717 0.00309779
720 0.0032629
723 0.00343266
726 0.00303343
729 0.00333526
732 0.00367655
735 0.00431056
738 0.00594247
741 0.0118095
744 0.0460796
747 0.0928839
750 0.121604
753 0.0464043
756 0.0100581
759 0.00508894
762 0.00414744
765 0.00355131
768 0.00352462
771 0.00338701
774 0.00346383
777 0.0034612
780 0.00343968
783 0.00368943
786 0.00395107
789 0.00384785
792 0.00429825
795 0.0050439
798 0.00537059
801 0.00605747
804 0.00785157
807 0.0103751
810 0.0166021
813 0.0392133
816 0.177489
819 0.455702
822 0.53541
825 0.112199
828 0.0256268
831 0.0125113
834 0.00858389
837 0.00669714
840 0.00555214
843 0.00479103
846 0.00421502
849 0.00404034
852 0.00356417
855 0.00336912
858 0.00333419
861 0.00306069
864 0.00318562
867 0.0028642
870 0.00269443
873 0.00277518
876 0.00283862
879 0.0029207
882 0.00310378
885 0.00307114
888 0.00301868
891 0.00271405
894 0.00273175
897 0.00256191
900 0.00263259
903 0.00277919
906 0.0024903
909 0.00245074
912 0.00245136
915 0.00268574
918 0.00298283
921 0.00290098
924 0.00339309
927 0.00384476
930 0.00454814
933 0.00573147
936 0.0090332
939 0.0182194
942 0.0634504
945 0.248746
948 0.303495
951 0.166668
954 0.0352253
957 0.0119985
960 0.00694374
963 0.00495773
966 0.00408899
969 0.00364931
972 0.00365792
975 0.0036755
978 0.00387347
981 0.00370688
984 0.00324174
987 0.0033401
990 0.00376256
993 0.00479763
996 0.00832139
999 0.018577
1002 0.0543312
1005 0.100453
1008 0.0610487
1011 0.0171449
1014 0.00606296
1017 0.00387994
1020 0.00329916
1023 0.0030782
1026 0.00290372
1029 0.00320597
1032 0.00322077
1035 0.00355662
1038 0.00407628
1041 0.00523561
1044 0.00737709
1047 0.0123313
1050 0.0298723
1053 0.0958682
1056 0.13109
1059 0.145301
1062 0.220974
1065 0.117909
1068 0.0269261
1071 0.011304
1074 0.00698645
1077 0.00547619
1080 0.00446598
1083 0.00428619
1086 0.00414535
1089 0.00374926
1092 0.00409
1095 0.00466118
1098 0.00644364
1101 0.0108082
1104 0.0322593
1107 0.0710035
1110 0.0802499
1113 0.11578
1116 0.0798225
1119 0.0172583
1122 0.00706606
1125 0.00411457
1128 0.00339057
1131 0.00272662
1134 0.00285573
1137 0.00257083
1140 0.00267679
1143 0.00277988
1146 0.00332551
1149 0.00408199
1152 0.00613369
1155 0.0145028
1158 0.0670519
1161 0.173656
1164 0.05918
1167 0.0114203
1170 0.00536879
1173 0.00356728
1176 0.00295684
1179 0.00263949
1182 0.00238279
1185 0.00242657
1188 0.00262369
1191 0.00290553
1194 0.00333968
1197 0.00448853
1200 0.00780178
1203 0.0215232
1206 0.0341386
1209 0.041773
1212 0.0342016
1215 0.0129883
1218 0.00558101
1221 0.0043036
1224 0.00399157
1227 0.00412097
1230 0.0047406
1233 0.00537366
1236 0.00630402
1239 0.00879761
1242 0.0132936
1245 0.026984
1248 0.0894043
1251 0.218597
1254 0.298557
1257 0.277059
1260 0.0891653
1263 0.0234127
1266 0.0113709
1269 0.00770331
1272 0.00542981
1275 0.00436382
1278 0.00374434
1281 0.00311059
1284 0.0029516
1287 0.00268859
1290 0.00227735
1293 0.00219439
1296 0.00225692
1299 0.00238436
1302 0.00221799
1305 0.00212994
1308 0.00248806
1311 0.00237075
1314 0.00232381
1317 0.00241966
1320 0.00278416
1323 0.0030733
1326 0.00426642
1329 0.00821388
1332 0.018016
1335 0.0207469
1338 0.0213359
1341 0.0220246
1344 0.0331997
1347 0.0373393
1350 0.0118837
1353 0.00587427
1356 0.00419895
1359 0.00392605
1362 0.00381492
1365 0.00396657
1368 0.00463061
1371 0.00822874
1374 0.0170595
1377 0.0246669
1380 0.043432
1383 0.0576366
1386 0.0476193
1389 0.0234393
1392 0.00867393
1395 0.00530719
1398 0.00497
1401 0.00508307
1404 0.00625558
1407 0.00805808
1410 0.0132154
1413 0.0331848
1416 0.0608596
1419 0.0877601
1422 0.104813
1425 0.114748
1428 0.108807
1431 0.0315033
1434 0.0125918
1437 0.00810782
1440 0.0065727
1443 0.0057759
1446 0.00544116
1449 0.00600144
1452 0.00775207
1455 0.0154373
1458 0.0409701
1461 0.0641691
1464 0.0495811
1467 0.0289317
1470 0.00995665
1473 0.00623568
1476 0.00587881
1479 0.00587563
1482 0.00672803
1485 0.00874562
1488 0.014625
1491 0.0373155
1494 0.0657718
1497 0.069467
1500 0.0846422
1503 0.112289
1506 0.0769474
1509 0.0233645
1512 0.0108891
1515 0.00746313
1518 0.00623439
1521 0.0061512
1524 0.00678429
1527 0.0112609
1530 0.023748
1533 0.0280127
1536 0.0302588
1539 0.040491
1542 0.0363041
1545 0.0131009
1548 0.006333
1551 0.00540448
1554 0.00466608
1557 0.00477426
1560 0.0054982
1563 0.00737518
1566 0.0131837
1569 0.0373741
1572 0.0960824
1575 0.092164
1578 0.0362421
1581 0.0111015
1584 0.00667309
1587 0.00517379
1590 0.00463344
1593 0.00426407
1596 0.00414087
1599 0.00372154
1602 0.00368564
1605 0.00332525
1608 0.00367459
1611 0.00387165
1614 0.00383599
1617 0.00415981
1620 0.00433315
1623 0.00430112
1626 0.00528235
1629 0.0067342
1632 0.00999277
1635 0.0209621
1638 0.0510542
1641 0.063292
1644 0.0806347
1647 0.101899
1650 0.0370351
1653 0.0128433
1656 0.0082385
1659 0.00663504
1662 0.00627303
1665 0.00703867
1668 0.00892612
1671 0.0133833
1674 0.0176015
1677 0.02033
1680 0.0194475
1683 0.0180179
1686 0.0115177
1689 0.00805357
1692 0.00851506
1695 0.0111244
1698 0.0209322
1701 0.0363098
1704 0.0623286
1707 0.0967283
1710 0.118943
1713 0.123145
1716 0.117102
1719 0.0622377
1722 0.0218605
1725 0.0125164
1728 0.0101793
1731 0.0123649
1734 0.016861
1737 0.017444
1740 0.0214248
1743 0.0307117
1746 0.0296934
1749 0.0302397
1752 0.0183782
1755 0.00744958
1758 0.00458812
1761 0.00354375
1764 0.0034403
1767 0.00344424
1770 0.00326096
1773 0.0028433
1776 0.00264109
1779 0.00285538
1782 0.002957
1785 0.00312546
1788 0.00325034
1791 0.00347477
1794 0.00544562
1797 0.00922551
1800 0.0138094
1803 0.025179
1806 0.0328128
1809 0.0382265
1812 0.0315426
1815 0.0162851
1818 0.0080401
1821 0.00762191
1824 0.00980823
1827 0.0211604
1830 0.0376397
1833 0.0395084
1836 0.0401081
1839 0.0440365
1842 0.0655227
1845 0.0648406
1848 0.0238042
1851 0.00952726
1854 0.00567557
1857 0.00406492
1860 0.0033789
1863 0.00281026
1866 0.00250325
1869 0.00232642
1872 0.00232667
1875 0.00245163
1878 0.00204051
1881 0.00224809
1884 0.00299025
1887 0.00366718
1890 0.00614832
1893 0.0128196
1896 0.0251162
1899 0.0246788
1902 0.0199619
1905 0.0168892
1908 0.00961589
1911 0.00422897
1914 0.00392977
1917 0.00434719
1920 0.008394
1923 0.0121975
1926 0.0165847
1929 0.0169062
1932 0.0179921
1935 0.0152774
1938 0.00686785
1941 0.00547798
1944 0.00629203
1947 0.0110022
1950 0.0222943
1953 0.0342212
1956 0.0536745
1959 0.0710195
1962 0.052639
1965 0.028303
1968 0.0129744
1971 0.00751411
1974 0.00785439
1977 0.0134091
1980 0.0210065
1983 0.021746
1986 0.0243829
1989 0.0303785
1992 0.0287477
1995 0.0173195
1998 0.00853784
2001 0.00838479
2004 0.0096649
2007 0.0136879
2010 0.0272168
2013 0.0498407
2016 0.0508109
2019 0.0411696
2022 0.026555
2025 0.0132816
2028 0.0077114
2031 0.00697666
2034 0.00604181
2037 0.00592761
2040 0.00572792
2043 0.00564472
2046 0.0066531
2049 0.00915087
2052 0.0103818
2055 0.0105851
2058 0.015387
2061 0.0234176
2064 0.0384608
2067 0.0427846
2070 0.0471401
2073 0.061282
2076 0.0620564
2079 0.0370562
2082 0.0145414
2085 0.00702562
2088 0.00474885
2091 0.00341291
2094 0.00301013
2097 0.00302997
2100 0.00276015
2103 0.00274266
2106 0.00372098
2109 0.00574849
2112 0.0117826
2115 0.0137144
2118 0.0138733
2121 0.014251
2124 0.0148495
2127 0.0175192
2130 0.0265634
2133 0.0276515
2136 0.0142585
2139 0.0111618
2142 0.011252
2145 0.0140582
2148 0.0178431
2151 0.0225129
2154 0.0209417
2157 0.0192666
2160 0.0148812
2163 0.00861673
2166 0.00880984
2169 0.0158413
2172 0.02729
2175 0.0343427
2178 0.0387481
2181 0.032221
2184 0.0277302
2187 0.0155081
2190 0.00626507
2193 0.0053969
2196 0.00747417
2199 0.0103264
2202 0.010976
2205 0.0143554
2208 0.0137172
2211 0.00708319
2214 0.00574313
2217 0.00975491
2220 0.01287
2223 0.0129639
2226 0.0136891
2229 0.0138806
2232 0.0181648
2235 0.0274771
2238 0.0189782
2241 0.00926448
2244 0.00817127
2247 0.00986008
2250 0.0130326
2253 0.0146957
2256 0.0161434
2259 0.0155061
2262 0.0124496
2265 0.0092072
2268 0.0133014
2271 0.0172427
2274 0.0174884
2277 0.0175823
2280 0.0193811
2283 0.0263929
2286 0.0294268
2289 0.0193575
2292 0.00780288
2295 0.00447482
2298 0.0029116
2301 0.00303306
2304 0.00241067
2307 0.00199407
2310 0.00210303
2313 0.00247398
2316 0.0022893
2319 0.00290845
2322 0.00382796
2325 0.00622497
2328 0.0124158
2331 0.0143122
2334 0.00742605
2337 0.00485439
2340 0.00523654
2343 0.00704575
2346 0.00804045
2349 0.00846672
2352 0.00870891
2355 0.0101117
2358 0.0137598
2361 0.0149565
2364 0.013402
2367 0.0138973
2370 0.0198465
2373 0.0336506
2376 0.0440102
2379 0.0484809
2382 0.0417713
2385 0.0303921
2388 0.0226775
2391 0.0144716
2394 0.0123858
2397 0.0146299
2400 0.0153011
2403 0.0133562
2406 0.0135363
2409 0.0153396
2412 0.0142483
2415 0.0131277
2418 0.0142867
2421 0.0143093
2424 0.0160126
2427 0.0185053
2430 0.0171734
2433 0.01747
2436 0.0140058
2439 0.0113292
2442 0.0112475
2445 0.010822
2448 0.0116712
2451 0.0134862
2454 0.0156451
2457 0.0198633
2460 0.0198935
2463 0.0221557
2466 0.0263439
2469 0.031228
2472 0.0325632
2475 0.0350567
2478 0.038924
2481 0.0306969
2484 0.0150504
2487 0.00882334
2490 0.00660468
2493 0.00596109
2496 0.00543092
2499 0.00571129
2502 0.00596745
2505 0.00831371
2508 0.014163
2511 0.0203996
2514 0.021468
2517 0.025911
2520 0.031721
2523 0.0300096
2526 0.0220658
2529 0.0114936
2532 0.00867748
2535 0.00819279
2538 0.00927614
2541 0.0103799
2544 0.00935299
2547 0.00943982
2550 0.0100519
2553 0.00830721
2556 0.00789479
2559 0.00777071
2562 0.00768657
2565 0.00916541
2568 0.0122192
2571 0.0150225
2574 0.0133825
2577 0.0107049
2580 0.0122029
2583 0.0143285
2586 0.0145686
2589 0.0146096
2592 0.0144355
2595 0.0097791
2598 0.0048198
2601 0.0045467
2604 0.00375495
2607 0.00303302
2610 0.00330794
2613 0.00330626
2616 0.00446732
2619 0.00590477
2622 0.0083864
2625 0.00964002
2628 0.0100191
2631 0.0112964
2634 0.0123939
2637 0.0136836
2640 0.0166283
2643 0.0191638
2646 0.0218093
2649 0.0249861
2652 0.0246106
2655 0.0260686
2658 0.0266095
2661 0.0157151
2664 0.00703763
2667 0.00486154
2670 0.00321053
2673 0.00372691
2676 0.00236947
2679 0.00320304
2682 0.00256681
2685 0.00320348
2688 0.00349049
2691 0.00322116
2694 0.00351626
2697 0.00408655
2700 0.00524732
2703 0.00684813
2706 0.0075307
2709 0.00807473
2712 0.00839002
2715 0.0101739
2718 0.0116396
2721 0.0136017
2724 0.015444
2727 0.0150124
2730 0.0163457
2733 0.0199649
2736 0.0234737
2739 0.0230195
2742 0.0201541
2745 0.0185864
2748 0.0118572
2751 0.00783023
2754 0.00612104
2757 0.00675821
2760 0.00832851
2763 0.00881916
2766 0.00819582
2769 0.00904752
2772 0.0111209
2775 0.0126402
2778 0.0164179
2781 0.0185489
2784 0.0152337
2787 0.0144041
2790 0.0105428
2793 0.00746436
2796 0.00589123
2799 0.00588326
2802 0.0076553
2805 0.00892476
2808 0.00848074
2811 0.00976985
2814 0.0121428
2817 0.0132303
2820 0.0141013
2823 0.0112642
2826 0.00756202
2829 0.00295066
2832 0.00270525
2835 0.00192543
2838 0.0022757
2841 0.00307748
2844 0.00469525
2847 0.00456373
2850 0.00561843
2853 0.00629892
2856 0.0072304
2859 0.00706676
2862 0.00840145
2865 0.0105117
2868 0.0121926
2871 0.00859986
2874 0.00596568
2877 0.00601976
2880 0.00677218
2883 0.00995458
2886 0.0123747
2889 0.0153377
2892 0.0154885
2895 0.0148946
2898 0.01675
2901 0.020005
2904 0.0236189
2907 0.0224073
2910 0.0163134
2913 0.0100323
2916 0.00911139
2919 0.00928838
2922 0.00713091
2925 0.00640896
2928 0.00727234
2931 0.00724135
2934 0.00893983
2937 0.0090768
2940 0.00733969
2943 0.00798693
2946 0.00769483
2949 0.00658286
2952 0.00626602
2955 0.0068007
2958 0.00769772
2961 0.00749704
2964 0.00803397
2967 0.00934213
2970 0.00790826
2973 0.00760109
2976 0.0082108
2979 0.00869037
2982 0.00820488
2985 0.00779677
2988 0.00480104
2991 0.00243772
2994 0.00303102
2997 0.003483
3000 0.00414465
3003 0.00468523
3006 0.0039517
3009 0.00426419
3012 0.00522663
3015 0.00546923
3018 0.00716576
3021 0.00900032
3024 0.0101567
3027 0.00829215
3030 0.009322
3033 0.00877755
3036 0.00901808
3039 0.0107744
3042 0.00984454
3045 0.00860742
3048 0.00709101
3051 0.00776338
3054 0.00770018
3057 0.00961177
3060 0.0113791
3063 0.013579
3066 0.0120833
3069 0.0104306
3072 0.00992647
3075 0.0121007
3078 0.0129329
3081 0.0125871
3084 0.0122806
3087 0.0104756
3090 0.0101503
3093 0.0112872
3096 0.0140134
3099 0.0155557
3102 0.0122952
3105 0.0102573
3108 0.00992611
3111 0.00938468
3114 0.00960894
3117 0.0118049
3120 0.0137792
3123 0.0162425
3126 0.0180712
3129 0.0173943
3132 0.0158514
3135 0.0147371
3138 0.0152623
3141 0.0120877
3144 0.0085513
3147 0.0057414
3150 0.0055711
3153 0.00648349
3156 0.00717929
3159 0.0102828
3162 0.0118459
3165 0.0117761
3168 0.0114154
3171 0.0110843
3174 0.0105906
3177 0.0100391
3180 0.0107919
3183 0.0124071
3186 0.0123957
3189 0.014264
3192 0.016736
3195 0.0156072
3198 0.0164379
3201 0.0161884
3204 0.0191338
3207 0.0170205
3210 0.0135863
3213 0.0111879
3216 0.00821123
3219 0.00611652
3222 0.00565131
3225 0.00641434
3228 0.00773227
3231 0.00534961
3234 0.00427677
3237 0.00446872
3240 0.00417831
3243 0.00361137
3246 0.00288612
3249 0.00537528
3252 0.00477128
3255 0.00659516
3258 0.00660302
3261 0.00682309
3264 0.00943781
3267 0.00839704
3270 0.00885292
3273 0.00932676
3276 0.00976514
3279 0.00953646
3282 0.0087509
3285 0.00546499
3288 0.00394304
3291 0.00266218
3294 0.00254919
3297 0.00310055
3300 0.00312926
3303 0.000000000000000000e+00
3306 0.0036445
3309 0.00290417
3312 0.00365707
3315 0.00485786
3318 0.00340699
3321 0.00578805
3324 0.0051817
3327 0.00482189
3330 0.00489002
3333 0.00721404
3336 0.00604767
3339 0.00775152
3342 0.00771917
3345 0.00769923
3348 0.00976227
3351 0.00977467
3354 0.0060349
3357 0.00648189
3360 0.00466111
3363 0.00426222
3366 0.00580409
3369 0.00570318
3372 0.00379136
3375 0.00361329
3378 0.00216715
3381 0.00546823
3384 0.00680642
3387 0.00728664
3390 0.00546901
3393 0.00614879
3396 0.0086229
3399 0.00605553
3402 0.00873745
3405 0.00737194
3408 0.00782545
3411 0.00541214
3414 0.00738481
3417 0.00823776
3420 0.00840868
3423 0.00987739
3426 0.00802189
3429 0.00809715
3432 0.0130825
3435 0.0123966
3438 0.0137088
3441 0.0170626
3444 0.0158591
3447 0.0164109
3450 0.0155556
3453 0.0223694
3456 0.0199138
3459 0.0200641
3462 0.024108
3465 0.0273457
3468 0.022632
3471 0.0272827
3474 0.0238671
3477 0.0332745
3480 0.0337097
3483 0.0367065
3486 0.0336553
3487 0.00154009