File: constrainednmf/example_data/BaTiO3_xrd_ramp/BTO_210K_tth.xy
0.000000000000000000e+00 4.63567e-05
3 0.000175912
6 0.000430463
9 0.00225968
12 0.0101238
15 0.0119811
18 0.0114392
21 0.0108928
24 0.0112701
27 0.0112841
30 0.00921738
33 0.00381115
36 0.00277667
39 0.00280298
42 0.00295583
45 0.00299916
48 0.00297153
51 0.00297307
54 0.00299188
57 0.00308471
60 0.00303937
63 0.00313086
66 0.00309336
69 0.0031508
72 0.00321068
75 0.00332859
78 0.00337269
81 0.00350065
84 0.00352759
87 0.00357854
90 0.00353088
93 0.00346366
96 0.00349167
99 0.0033958
102 0.00331534
105 0.00332595
108 0.00331924
111 0.00332247
114 0.00330096
117 0.00326752
120 0.00315276
123 0.00313858
126 0.00301703
129 0.00316446
132 0.00312926
135 0.00302904
138 0.00303258
141 0.00301009
144 0.00296548
147 0.00302099
150 0.0028609
153 0.00280666
156 0.00279009
159 0.00276004
162 0.00272738
165 0.00269532
168 0.00261139
171 0.00263226
174 0.00255265
177 0.00248842
180 0.00242996
183 0.00244532
186 0.00236634
189 0.00232359
192 0.0023006
195 0.00225347
198 0.00221404
201 0.00217429
204 0.00218121
207 0.00204936
210 0.002101
213 0.00209822
216 0.0020074
219 0.0020517
222 0.00199419
225 0.00193668
228 0.00194208
231 0.00196159
234 0.00190983
237 0.00189235
240 0.00185744
243 0.00187595
246 0.00189371
249 0.0019087
252 0.00190475
255 0.00191519
258 0.00187497
261 0.00196319
264 0.00192808
267 0.00194247
270 0.00199664
273 0.00199873
276 0.00197612
279 0.00208697
282 0.00220846
285 0.00224884
288 0.00227338
291 0.00233921
294 0.00237068
297 0.00225591
300 0.00209698
303 0.00202866
306 0.00188904
309 0.00188154
312 0.00202555
315 0.00199397
318 0.00199747
321 0.00225977
324 0.00290282
327 0.00546155
330 0.0259945
333 0.110499
336 0.0693466
339 0.0116124
342 0.00960823
345 0.00607304
348 0.00193154
351 0.00149445
354 0.00147458
357 0.00229208
360 0.00431678
363 0.00376842
366 0.0023381
369 0.00127537
372 0.000929461
375 0.000781561
378 0.000846486
381 0.000980068
384 0.00111684
387 0.00361019
390 0.00324588
393 0.000936994
396 0.000879097
399 0.000920513
402 0.000914366
405 0.000847494
408 0.000908821
411 0.00107202
414 0.00121157
417 0.00137476
420 0.00120093
423 0.00127361
426 0.00138086
429 0.00115057
432 0.00125531
435 0.00123469
438 0.00143363
441 0.00158323
444 0.00199785
447 0.00242914
450 0.00291169
453 0.00354904
456 0.00448036
459 0.00605863
462 0.00919157
465 0.0184616
468 0.0701647
471 0.504548
474 0.934556
477 0.159303
480 0.0264097
483 0.0108129
486 0.00647834
489 0.00456867
492 0.00350225
495 0.00265043
498 0.00199779
501 0.00363823
504 0.00183254
507 0.00195327
510 0.00239749
513 0.00231565
516 0.00190177
519 0.00111925
522 0.000685989
525 0.000377263
528 0.000399372
531 0.000234946
534 0.000269716
537 2.91967e-05
540 0.000170969
543 0.000120092
546 0.000183721
549 0.000210758
552 0.000333745
555 0.000470788
558 0.000590755
561 0.000891458
564 0.00147563
567 0.0020461
570 0.00342854
573 0.00847239
576 0.0485028
579 0.318795
582 0.180268
585 0.0188806
588 0.0054024
591 0.00303203
594 0.00322105
597 0.00185496
600 0.00127785
603 0.000943085
606 0.000673629
609 0.000853253
612 0.000669754
615 0.000777751
618 0.00067418
621 0.00101258
624 0.00206805
627 0.00192475
630 0.00167432
633 0.00157907
636 0.00180117
639 0.0017675
642 0.00169192
645 0.00338234
648 0.00507457
651 0.00340071
654 0.00485613
657 0.00745733
660 0.0139972
663 0.0373078
666 0.16708
669 0.337263
672 0.227634
675 0.110966
678 0.0219967
681 0.0083413
684 0.00508803
687 0.0056423
690 0.00344432
693 0.00328111
696 0.00302645
699 0.00580352
702 0.00136188
705 0.000893714
708 0.00118702
711 0.00180397
714 0.000645221
717 0.000597271
720 0.000621313
723 0.000794689
726 0.000806426
729 0.000885016
732 0.00113105
735 0.00151499
738 0.00285155
741 0.00665025
744 0.0274879
747 0.100902
750 0.111459
753 0.0527822
756 0.00978078
759 0.00289068
762 0.00136208
765 0.000762928
768 0.000592836
771 0.000382086
774 0.000715957
777 0.00278023
780 0.000813811
783 0.000794272
786 0.000861334
789 0.00110053
792 0.00133097
795 0.00164789
798 0.00233808
801 0.00312875
804 0.00442472
807 0.0066798
810 0.0117425
813 0.027685
816 0.118245
819 0.460836
822 0.511764
825 0.156937
828 0.0292664
831 0.0105293
834 0.00601452
837 0.00386866
840 0.00300619
843 0.00188944
846 0.00151008
849 0.00104015
852 0.000550384
855 0.000731834
858 0.000623808
861 0.000893196
864 0.000543709
867 0.00032774
870 0.0004086
873 0.000413036
876 0.000485553
879 0.00385653
882 0.000825749
885 0.000902459
888 0.000593531
891 0.000473543
894 0.000139168
897 0.000310876
900 1.83284e-05
903 0.000178558
906 0.000212106
909 0.000338721
912 0.000344533
915 0.000353803
918 0.000560347
921 0.000693862
924 0.00106369
927 0.00196772
930 0.00212461
933 0.00341043
936 0.00603959
939 0.0141412
942 0.0547759
945 0.164202
948 0.339151
951 0.20073
954 0.0363519
957 0.0112085
960 0.00536098
963 0.00349605
966 0.00262131
969 0.00187494
972 0.00168955
975 0.00301856
978 0.00276346
981 0.00248714
984 0.00202704
987 0.0017979
990 0.00184236
993 0.0026396
996 0.0046587
999 0.0125916
1002 0.0467623
1005 0.0963403
1008 0.0690521
1011 0.0186738
1014 0.00617359
1017 0.00238694
1020 0.00172153
1023 0.00125219
1026 0.00120332
1029 0.00133216
1032 0.00168626
1035 0.00189889
1038 0.00227183
1041 0.00335754
1044 0.0047841
1047 0.00805203
1050 0.0160156
1053 0.0457756
1056 0.148347
1059 0.222901
1062 0.152169
1065 0.129928
1068 0.0434564
1071 0.0125485
1074 0.00611223
1077 0.00409372
1080 0.00281309
1083 0.00236992
1086 0.00232252
1089 0.00242106
1092 0.00295413
1095 0.00350052
1098 0.00396153
1101 0.00652796
1104 0.0155955
1107 0.0549252
1110 0.116685
1113 0.0980216
1116 0.0753379
1119 0.0281827
1122 0.00699496
1125 0.00285374
1128 0.00179642
1131 0.00123242
1134 0.000874032
1137 0.00080324
1140 0.0010914
1143 0.00135868
1146 0.0016183
1149 0.00234849
1152 0.00396816
1155 0.0109153
1158 0.0516897
1161 0.140896
1164 0.0974009
1167 0.0153907
1170 0.00432782
1173 0.00191424
1176 0.00117675
1179 0.00105167
1182 0.000715185
1185 0.000621697
1188 0.000614522
1191 0.000787405
1194 0.00134156
1197 0.00213262
1200 0.00469643
1203 0.0141339
1206 0.0292038
1209 0.0444044
1212 0.0346682
1215 0.013597
1218 0.00416652
1221 0.00254055
1224 0.00210094
1227 0.00209843
1230 0.00231729
1233 0.00297264
1236 0.00384743
1239 0.00578579
1242 0.00956949
1245 0.0196783
1248 0.0612093
1251 0.175302
1254 0.319963
1257 0.29061
1260 0.124455
1263 0.0291462
1266 0.0111017
1269 0.0061191
1272 0.00391832
1275 0.00240445
1278 0.00176329
1281 0.00128927
1284 0.000793475
1287 0.000873161
1290 0.000535692
1293 0.000490592
1296 0.00010792
1299 0.000293969
1302 0.000208869
1305 0.000353807
1308 0.000416328
1311 0.000146143
1314 0.000326786
1317 0.00040319
1320 0.000617871
1323 0.000833269
1326 0.00120361
1329 0.00266583
1332 0.00598148
1335 0.016886
1338 0.036191
1341 0.0310639
1344 0.0206978
1347 0.0202056
1350 0.0193299
1353 0.00628202
1356 0.00315081
1359 0.00190755
1362 0.00141168
1365 0.00151053
1368 0.00187842
1371 0.00332356
1374 0.00707728
1377 0.021147
1380 0.0491268
1383 0.0587632
1386 0.0425468
1389 0.0217355
1392 0.0114953
1395 0.00380076
1398 0.00260805
1401 0.00220441
1404 0.00286276
1407 0.00435424
1410 0.00736188
1413 0.014638
1416 0.0414936
1419 0.0938012
1422 0.128358
1425 0.1208
1428 0.0799997
1431 0.0514347
1434 0.015781
1437 0.00664078
1440 0.00439131
1443 0.00323816
1446 0.00279165
1449 0.0031889
1452 0.00487074
1455 0.0129311
1458 0.0267002
1461 0.0486623
1464 0.068524
1467 0.0311538
1470 0.00838447
1473 0.00376076
1476 0.00252531
1479 0.00283936
1482 0.0036326
1485 0.00501284
1488 0.00812929
1491 0.0179481
1494 0.04559
1497 0.0885469
1500 0.112912
1503 0.082989
1506 0.0757106
1509 0.036361
1512 0.0111829
1515 0.00575152
1518 0.00348414
1521 0.00320051
1524 0.003517
1527 0.00528032
1530 0.0121834
1533 0.0272405
1536 0.0410195
1539 0.0352815
1542 0.0284078
1545 0.0179463
1548 0.00556673
1551 0.00246919
1554 0.00213221
1557 0.00178627
1560 0.00242319
1563 0.0039145
1566 0.0091805
1569 0.0300899
1572 0.0647681
1575 0.103543
1578 0.0560621
1581 0.0126729
1584 0.00497518
1587 0.00260046
1590 0.00173956
1593 0.00104504
1596 0.0012183
1599 0.000818191
1602 0.00114457
1605 0.0011841
1608 0.000592436
1611 0.000738407
1614 0.000708371
1617 0.000807013
1620 0.00121695
1623 0.00135904
1626 0.002066
1629 0.00261816
1632 0.00486478
1635 0.0110621
1638 0.0315796
1641 0.068735
1644 0.0922603
1647 0.0798129
1650 0.0547957
1653 0.0178617
1656 0.0065822
1659 0.00427938
1662 0.00332141
1665 0.00333168
1668 0.00476419
1671 0.0091574
1674 0.0134383
1677 0.0186736
1680 0.0200711
1683 0.015602
1686 0.00857847
1689 0.00613515
1692 0.00536782
1695 0.00642464
1698 0.0101498
1701 0.0198373
1704 0.0507755
1707 0.0922318
1710 0.132102
1713 0.143357
1716 0.110969
1719 0.0598446
1722 0.0342306
1725 0.0142372
1728 0.00762447
1731 0.00644773
1734 0.00775794
1737 0.014784
1740 0.0277771
1743 0.0335776
1746 0.029793
1749 0.0180155
1752 0.0148106
1755 0.0113195
1758 0.00384312
1761 0.00160627
1764 0.00115815
1767 0.000563216
1770 0.000569342
1773 0.000521023
1776 0.000205451
1779 0.000274274
1782 0.00049965
1785 0.000155166
1788 0.000589864
1791 0.00120077
1794 0.00204841
1797 0.00412268
1800 0.00982316
1803 0.0217682
1806 0.0330371
1809 0.0394801
1812 0.0302993
1815 0.0161797
1818 0.00920103
1821 0.0055414
1824 0.00541352
1827 0.00920411
1830 0.0193353
1833 0.0420789
1836 0.0661129
1839 0.0649894
1842 0.0464732
1845 0.042273
1848 0.0407748
1851 0.0154286
1854 0.00550268
1857 0.00290574
1860 0.00178314
1863 0.00108858
1866 0.000407936
1869 0.000474907
1872 6.35492e-05
1875 0.000311052
1878 0.000491875
1881 0.000566086
1884 0.000675157
1887 0.00126705
1890 0.00488815
1893 0.00869717
1896 0.0129856
1899 0.0225254
1902 0.0307729
1905 0.0220545
1908 0.00733917
1911 0.00283316
1914 0.00232871
1917 0.00267912
1920 0.00512491
1923 0.0101777
1926 0.0146138
1929 0.0189996
1932 0.0194879
1935 0.0139631
1938 0.00810231
1941 0.00422233
1944 0.00445628
1947 0.00708079
1950 0.0151326
1953 0.0291287
1956 0.0533028
1959 0.0706456
1962 0.0630064
1965 0.0363266
1968 0.0175064
1971 0.00756063
1974 0.00626809
1977 0.00872717
1980 0.0156002
1983 0.022322
1986 0.0326349
1989 0.0304005
1992 0.0250027
1995 0.0209278
1998 0.00983208
2001 0.00586735
2004 0.00673048
2007 0.013442
2010 0.0255409
2013 0.0354761
2016 0.0559383
2019 0.0566576
2022 0.0282167
2025 0.0118744
2028 0.00901238
2031 0.00579901
2034 0.00510206
2037 0.00717404
2040 0.00788313
2043 0.00705098
2046 0.00590318
2049 0.0048928
2052 0.006189
2055 0.00797986
2058 0.00927072
2061 0.0151879
2064 0.0336317
2067 0.054273
2070 0.0659368
2073 0.0637009
2076 0.0519092
2079 0.0389608
2082 0.0231146
2085 0.0125488
2088 0.0054944
2091 0.00332969
2094 0.0021759
2097 0.00197
2100 0.00184257
2103 0.00154001
2106 0.001963
2109 0.00288841
2112 0.00424123
2115 0.00767379
2118 0.0158138
2121 0.0247119
2124 0.0259979
2127 0.0196166
2130 0.0155369
2133 0.0160617
2136 0.0193909
2139 0.0133706
2142 0.0104897
2145 0.0148109
2148 0.0206984
2151 0.0245778
2154 0.0243461
2157 0.0187114
2160 0.0122734
2163 0.0107138
2166 0.00908133
2169 0.014205
2172 0.0178367
2175 0.0259537
2178 0.0412991
2181 0.0454727
2184 0.0361186
2187 0.0173934
2190 0.00671929
2193 0.00446774
2196 0.00520989
2199 0.00849522
2202 0.0110543
2205 0.0137937
2208 0.0128536
2211 0.00845754
2214 0.00453398
2217 0.00429603
2220 0.00703529
2223 0.0142692
2226 0.0205838
2229 0.0225774
2232 0.0178028
2235 0.014194
2238 0.0155374
2241 0.0148496
2244 0.00848453
2247 0.0087719
2250 0.0106395
2253 0.014405
2256 0.0170576
2259 0.0159399
2262 0.0114032
2265 0.00751338
2268 0.00704986
2271 0.0114022
2274 0.0178136
2277 0.0260684
2280 0.0292737
2283 0.022162
2286 0.0187123
2289 0.0201634
2292 0.0135116
2295 0.0044955
2298 0.00197137
2301 0.00092151
2304 0.000619229
2307 0.000000000000000000e+00
2310 0.000113363
2313 0.000242545
2316 0.000398318
2319 0.000685086
2322 0.00160792
2325 0.00352007
2328 0.00729026
2331 0.0105317
2334 0.0112254
2337 0.00415503
2340 0.00228837
2343 0.00290861
2346 0.00544656
2349 0.00817979
2352 0.00983101
2355 0.00946339
2358 0.0081393
2361 0.00877376
2364 0.010024
2367 0.0118403
2370 0.0194337
2373 0.0318717
2376 0.0399948
2379 0.0511589
2382 0.053402
2385 0.0334518
2388 0.0168235
2391 0.0149935
2394 0.0158272
2397 0.0140844
2400 0.0139489
2403 0.0143702
2406 0.0148292
2409 0.0113278
2412 0.00842072
2415 0.0103461
2418 0.0106684
2421 0.011734
2424 0.0166936
2427 0.0188014
2430 0.0160388
2433 0.015431
2436 0.0125591
2439 0.00901
2442 0.00919031
2445 0.0104871
2448 0.011862
2451 0.0116146
2454 0.0110939
2457 0.0112551
2460 0.0136579
2463 0.0197313
2466 0.0300596
2469 0.0370996
2472 0.0412198
2475 0.0399104
2478 0.0331096
2481 0.0237584
2484 0.0181749
2487 0.0136157
2490 0.00617197
2493 0.00425163
2496 0.00307703
2499 0.00257249
2502 0.00279783
2505 0.00419998
2508 0.00845485
2511 0.0134827
2514 0.0190336
2517 0.0289655
2520 0.0313237
2523 0.0280058
2526 0.0237006
2529 0.0137826
2532 0.00711466
2535 0.00757089
2538 0.00796492
2541 0.00765763
2544 0.00746795
2547 0.00569972
2550 0.00439399
2553 0.0063479
2556 0.007038
2559 0.00918199
2562 0.00926389
2565 0.00759115
2568 0.00660842
2571 0.006808
2574 0.0094438
2577 0.0120006
2580 0.0132267
2583 0.0148911
2586 0.0158834
2589 0.0135269
2592 0.00983145
2595 0.00685993
2598 0.00620581
2601 0.00281531
2604 0.00156068
2607 0.0011628
2610 0.000372253
2613 0.000385345
2616 0.00165742
2619 0.00279554
2622 0.00525596
2625 0.0062913
2628 0.00895458
2631 0.0100261
2634 0.0105498
2637 0.0107788
2640 0.01257
2643 0.0163249
2646 0.0208733
2649 0.0282911
2652 0.0309557
2655 0.0289477
2658 0.0236609
2661 0.0170911
2664 0.0103978
2667 0.00466832
2670 0.0024344
2673 0.00148828
2676 0.000453054
2679 0.000365244
2682 0.000828003
2685 0.00154826
2688 0.00199285
2691 0.00183633
2694 0.00190893
2697 0.00160497
2700 0.00265854
2703 0.00382855
2706 0.00626008
2709 0.00803107
2712 0.00851613
2715 0.00991206
2718 0.0101131
2721 0.0106442
2724 0.0119883
2727 0.0149874
2730 0.0197413
2733 0.0250702
2736 0.0274113
2739 0.0260402
2742 0.0203024
2745 0.0156656
2748 0.0136249
2751 0.0108825
2754 0.00826547
2757 0.00685334
2760 0.00538819
2763 0.00583358
2766 0.00721192
2769 0.0105144
2772 0.0138788
2775 0.0150332
2778 0.0170544
2781 0.0187063
2784 0.0146951
2787 0.0111245
2790 0.011527
2793 0.0126509
2796 0.0105395
2799 0.00795361
2802 0.00577687
2805 0.00619949
2808 0.00724685
2811 0.00903767
2814 0.00981681
2817 0.0123882
2820 0.016173
2823 0.0159487
2826 0.0103766
2829 0.00422283
2832 0.0015771
2835 0.000319158
2838 3.92506e-05
2841 0.000763036
2844 0.0019796
2847 0.00312435
2850 0.00510728
2853 0.0072519
2856 0.00923524
2859 0.00940875
2862 0.00913124
2865 0.00958716
2868 0.0070347
2871 0.0068074
2874 0.00790004
2877 0.00690605
2880 0.00627576
2883 0.00693639
2886 0.00938509
2889 0.0119252
2892 0.0179119
2895 0.0226099
2898 0.0249053
2901 0.0241568
2904 0.0205178
2907 0.0191377
2910 0.0177481
2913 0.0146943
2916 0.0119344
2919 0.0103826
2922 0.00892597
2925 0.00755746
2928 0.00753511
2931 0.00617079
2934 0.00510568
2937 0.00651503
2940 0.00872767
2943 0.010479
2946 0.00865624
2949 0.00483885
2952 0.00613615
2955 0.00674088
2958 0.00661265
2961 0.00682411
2964 0.00665398
2967 0.0060125
2970 0.00585451
2973 0.0077057
2976 0.00863193
2979 0.00941873
2982 0.00885875
2985 0.00703451
2988 0.00553051
2991 0.00187634
2994 0.000481289
2997 0.00101525
3000 0.000637948
3003 0.00117004
3006 0.00242898
3009 0.00262079
3012 0.00465316
3015 0.00488543
3018 0.00515792
3021 0.00465879
3024 0.00527135
3027 0.00772694
3030 0.00786239
3033 0.00704736
3036 0.00672397
3039 0.00684123
3042 0.00746441
3045 0.00854746
3048 0.00929183
3051 0.00844855
3054 0.006007
3057 0.00487956
3060 0.0061914
3063 0.00829272
3066 0.00982155
3069 0.0091259
3072 0.00987868
3075 0.00945857
3078 0.00925478
3081 0.00843942
3084 0.00889348
3087 0.00959482
3090 0.0117444
3093 0.00919634
3096 0.00807712
3099 0.00897316
3102 0.00844707
3105 0.00810279
3108 0.00588804
3111 0.00487092
3114 0.00673424
3117 0.00938542
3120 0.0115989
3123 0.0126709
3126 0.0157187
3129 0.0166804
3132 0.0175559
3135 0.0149104
3138 0.00860828
3141 0.00550397
3144 0.00475442
3147 0.00381092
3150 0.00211621
3153 0.00206644
3156 0.00318526
3159 0.00193546
3162 0.00328458
3165 0.00624506
3168 0.00901339
3171 0.00952144
3174 0.00831114
3177 0.00675756
3180 0.00685907
3183 0.00831628
3186 0.00918843
3189 0.00991947
3192 0.011151
3195 0.0140515
3198 0.0153948
3201 0.0166717
3204 0.0169396
3207 0.014555
3210 0.0133028
3213 0.0106576
3216 0.0079062
3219 0.0053548
3222 0.00228102
3225 0.00175515
3228 0.000423201
3231 0.001241
3234 0.00108879
3237 0.00191348
3240 0.000265598
3243 0.000658612
3246 0.000792602
3249 0.00141312
3252 0.00112743
3255 0.00227498
3258 0.00298121
3261 0.00554882
3264 0.00642957
3267 0.00809125
3270 0.00851882
3273 0.0107313
3276 0.00960086
3279 0.00754164
3282 0.00519599
3285 0.0049622
3288 0.00269489
3291 0.00159595
3294 0.000483187
3297 0.000165242
3300 0.000572043
3303 0.00139891
3306 0.00333797
3309 0.00303754
3312 0.00408683
3315 0.00309806
3318 0.00343749
3321 0.00204068
3324 0.0024582
3327 0.00389358
3330 0.00447583
3333 0.00569558
3336 0.00793087
3339 0.00991836
3342 0.0104253
3345 0.0111247
3348 0.0110982
3351 0.0100164
3354 0.0102567
3357 0.00854964
3360 0.00967499
3363 0.0056756
3366 0.00757614
3369 0.00429444
3372 0.00553771
3375 0.00440594
3378 0.00546975
3381 0.00465895
3384 0.00653699
3387 0.0064448
3390 0.00557397
3393 0.00556786
3396 0.00823688
3399 0.00635919
3402 0.00506023
3405 0.00570188
3408 0.00640823
3411 0.00570336
3414 0.00449751
3417 0.00517362
3420 0.00550649
3423 0.00160077
3426 0.00491269
3429 0.00474555
3432 0.00635608
3435 0.00734601
3438 0.00637003
3441 0.00610415
3444 0.00848658
3447 0.00716395
3450 0.0131526
3453 0.0135378
3456 0.0105067
3459 0.00201278
3462 0.00208624
3465 0.00417014
3468 0.00578185
3471 0.00789224
3474 0.0052303
3477 0.00963587
3480 0.0102599
3483 0.00958841
3486 0.0101247
3487 0.0138209