File: constrainednmf/example_data/BaTiO3_xrd_ramp/BTO_175K_tth.xy
0.000000000000000000e+00 0.00106335
3 0.00106505
6 0.00117957
9 0.00277232
12 0.0103752
15 0.0119312
18 0.0113532
21 0.0107676
24 0.0110751
27 0.0109836
30 0.00898926
33 0.00383206
36 0.00279523
39 0.00277782
42 0.00290079
45 0.00290807
48 0.00287767
51 0.00282644
54 0.002844
57 0.00290913
60 0.00293632
63 0.00301
66 0.0030466
69 0.0030412
72 0.0030895
75 0.00317516
78 0.00326445
81 0.00338009
84 0.00349549
87 0.003525
90 0.0034992
93 0.00346492
96 0.00344281
99 0.00338845
102 0.00335941
105 0.00343043
108 0.00343434
111 0.00342577
114 0.00347499
117 0.00344527
120 0.00342577
123 0.00343318
126 0.0033269
129 0.00339927
132 0.00344511
135 0.00343127
138 0.00337379
141 0.00340208
144 0.00350651
147 0.00344877
150 0.00339367
153 0.00336171
156 0.00335481
159 0.00330023
162 0.00336524
165 0.00337231
168 0.00329661
171 0.00331166
174 0.00326634
177 0.00324003
180 0.00325046
183 0.00318199
186 0.00318344
189 0.00313394
192 0.00314411
195 0.00310712
198 0.00310913
201 0.00307923
204 0.00301545
207 0.00303871
210 0.00308253
213 0.00303331
216 0.00301687
219 0.00297632
222 0.00300087
225 0.00294421
228 0.0029768
231 0.00293272
234 0.00292702
237 0.00299227
240 0.00295955
243 0.00289868
246 0.00291621
249 0.00293699
252 0.00293375
255 0.00287269
258 0.00292786
261 0.00295121
264 0.00296234
267 0.00298774
270 0.00303493
273 0.00300422
276 0.00298052
279 0.00312995
282 0.00314064
285 0.00322277
288 0.00331585
291 0.00332561
294 0.00335433
297 0.00321365
300 0.00303746
303 0.00289242
306 0.00289541
309 0.00285227
312 0.00282832
315 0.00284801
318 0.00295838
321 0.00311464
324 0.00371195
327 0.00587204
330 0.0224093
333 0.110718
336 0.067094
339 0.0111679
342 0.00802184
345 0.00673421
348 0.00268823
351 0.00227995
354 0.00232839
357 0.00282591
360 0.00481753
363 0.00457532
366 0.00312246
369 0.00203261
372 0.00177179
375 0.00161248
378 0.00158483
381 0.00166749
384 0.00194435
387 0.00506406
390 0.00550655
393 0.00168102
396 0.00154353
399 0.0015605
402 0.00153506
405 0.00158679
408 0.00157896
411 0.00176168
414 0.00180233
417 0.00201524
420 0.00197759
423 0.00192388
426 0.00204813
429 0.00167335
432 0.00171393
435 0.00185705
438 0.00196325
441 0.00209943
444 0.00260751
447 0.00277921
450 0.00335811
453 0.00389492
456 0.00483315
459 0.00632477
462 0.00923233
465 0.017638
468 0.0611379
471 0.455046
474 0.92948
477 0.157764
480 0.0268454
483 0.0109939
486 0.00691477
489 0.00504594
492 0.0038614
495 0.00286538
498 0.00245403
501 0.00268391
504 0.00215405
507 0.00222184
510 0.00257645
513 0.00288697
516 0.00246475
519 0.00160246
522 0.000913163
525 0.000701762
528 0.000625291
531 0.000621443
534 0.000557905
537 0.000697285
540 0.00067652
543 0.000678117
546 0.000704813
549 0.000858164
552 0.000788098
555 0.000911453
558 0.00122158
561 0.0013212
564 0.00193227
567 0.00242629
570 0.00365931
573 0.00842644
576 0.0457154
579 0.293271
582 0.188703
585 0.0202781
588 0.00586516
591 0.00336908
594 0.00292558
597 0.00226339
600 0.00175663
603 0.00138184
606 0.00106331
609 0.00121548
612 0.00111387
615 0.00118858
618 0.00123113
621 0.00151219
624 0.00240175
627 0.00259357
630 0.00223841
633 0.00224828
636 0.00222016
639 0.00241515
642 0.00229759
645 0.00345827
648 0.00799084
651 0.00417965
654 0.00502767
657 0.00746905
660 0.0132795
663 0.0312636
666 0.120966
669 0.371743
672 0.255271
675 0.0795654
678 0.021143
681 0.00873273
684 0.00551255
687 0.00475425
690 0.00379742
693 0.00393398
696 0.0036074
699 0.00812678
702 0.0026684
705 0.00162876
708 0.00154449
711 0.00243179
714 0.00141034
717 0.00132362
720 0.00123622
723 0.00156006
726 0.00144624
729 0.00153339
732 0.00176944
735 0.00218007
738 0.00346791
741 0.00665337
744 0.0214299
747 0.0902518
750 0.13338
753 0.0442866
756 0.00994649
759 0.00370742
762 0.00219312
765 0.00147211
768 0.0011654
771 0.00120716
774 0.00130159
777 0.00225474
780 0.00159652
783 0.00147605
786 0.00164694
789 0.00191956
792 0.00193283
795 0.0024712
798 0.00293042
801 0.00356195
804 0.00473497
807 0.00691342
810 0.0114762
813 0.0255074
816 0.0979344
819 0.418248
822 0.56224
825 0.14358
828 0.0299144
831 0.0117058
834 0.00664497
837 0.00464736
840 0.00355012
843 0.00260638
846 0.00211927
849 0.00191194
852 0.00145654
855 0.00150914
858 0.00115861
861 0.00126621
864 0.00110383
867 0.00112354
870 0.00115997
873 0.0010291
876 0.00116521
879 0.00325815
882 0.0021272
885 0.00154073
888 0.00126961
891 0.0011882
894 0.0010101
897 0.00132019
900 0.000920196
903 0.000756934
906 0.000876524
909 0.000861552
912 0.00103135
915 0.00108271
918 0.000996625
921 0.0011884
924 0.00174896
927 0.00217595
930 0.00290032
933 0.0036821
936 0.00607413
939 0.0128622
942 0.0406718
945 0.153719
948 0.351136
951 0.195295
954 0.0369306
957 0.0116259
960 0.00610459
963 0.00381959
966 0.00297864
969 0.00207973
972 0.00239484
975 0.00244406
978 0.00439453
981 0.00320672
984 0.00236361
987 0.0022558
990 0.00211609
993 0.00291771
996 0.00461184
999 0.0106181
1002 0.0394961
1005 0.0980078
1008 0.0745527
1011 0.0171484
1014 0.00604662
1017 0.00293771
1020 0.0019052
1023 0.00165698
1026 0.00144339
1029 0.00160767
1032 0.00164571
1035 0.00212349
1038 0.00233302
1041 0.00298611
1044 0.00448874
1047 0.00734638
1050 0.0140227
1053 0.0342445
1056 0.105642
1059 0.24718
1062 0.211894
1065 0.0947496
1068 0.0353148
1071 0.0128553
1074 0.00654995
1077 0.00426612
1080 0.00302557
1083 0.00257445
1086 0.00252989
1089 0.0026189
1092 0.00274432
1095 0.00477685
1098 0.00424425
1101 0.00629629
1104 0.0128831
1107 0.0395301
1110 0.10931
1113 0.132693
1116 0.0647737
1119 0.0226426
1122 0.00721458
1125 0.00318469
1128 0.00193988
1131 0.0015742
1134 0.00118871
1137 0.00105869
1140 0.00118091
1143 0.00113416
1146 0.001506
1149 0.00220642
1152 0.00390322
1155 0.0106759
1158 0.0483904
1161 0.124574
1164 0.108323
1167 0.0170566
1170 0.00471763
1173 0.00240978
1176 0.00129494
1179 0.00110249
1182 0.000881699
1185 0.000603235
1188 0.00083082
1191 0.00099321
1194 0.00128447
1197 0.00216096
1200 0.00395644
1203 0.0102855
1206 0.0277801
1209 0.0499175
1212 0.0357346
1215 0.0119268
1218 0.00430802
1221 0.00251173
1224 0.00227349
1227 0.00219927
1230 0.00254962
1233 0.00306989
1236 0.00403538
1239 0.00575791
1242 0.00910957
1245 0.017569
1248 0.0470919
1251 0.149468
1254 0.326072
1257 0.322525
1260 0.109875
1263 0.0295358
1266 0.0120219
1269 0.0061913
1272 0.00394516
1275 0.0027381
1278 0.00189648
1281 0.00164619
1284 0.00115513
1287 0.00132582
1290 0.000533038
1293 0.00125826
1296 0.000538759
1299 0.000391264
1302 0.000627305
1305 0.000540763
1308 0.00081455
1311 0.000769462
1314 0.00103456
1317 0.00113959
1320 0.00102657
1323 0.00128706
1326 0.00194497
1329 0.00278328
1332 0.00494726
1335 0.0112787
1338 0.0271928
1341 0.0444908
1344 0.034749
1347 0.0190503
1350 0.0115933
1353 0.00588682
1356 0.00361903
1359 0.00258752
1362 0.00212079
1365 0.00220451
1368 0.00255991
1371 0.00352323
1374 0.00647017
1377 0.0163406
1380 0.0427111
1383 0.067845
1386 0.0526201
1389 0.019085
1392 0.00899463
1395 0.00462852
1398 0.0031872
1401 0.00324545
1404 0.00345714
1407 0.00458613
1410 0.00711663
1413 0.0129274
1416 0.0290805
1419 0.0729809
1422 0.143376
1425 0.154731
1428 0.0804116
1431 0.0354612
1434 0.0154692
1437 0.00800095
1440 0.00496724
1443 0.00399493
1446 0.00380697
1449 0.00390513
1452 0.00545858
1455 0.0105673
1458 0.0255217
1461 0.0519809
1464 0.0704531
1467 0.0326164
1470 0.009709
1473 0.00504069
1476 0.00391232
1479 0.00382604
1482 0.00437215
1485 0.00544718
1488 0.00838029
1491 0.0149445
1494 0.0322108
1497 0.0764724
1500 0.131205
1503 0.116385
1506 0.0620175
1509 0.0287093
1512 0.012361
1515 0.00697811
1518 0.004863
1521 0.0043696
1524 0.00457757
1527 0.00604811
1530 0.0100883
1533 0.0226762
1536 0.0427112
1539 0.048734
1542 0.0304942
1545 0.0145353
1548 0.00650319
1551 0.0038398
1554 0.00327212
1557 0.00303479
1560 0.00322221
1563 0.00471758
1566 0.0097615
1569 0.0284045
1572 0.0598223
1575 0.103525
1578 0.0634875
1581 0.0156829
1584 0.00651822
1587 0.00407165
1590 0.00300246
1593 0.00262884
1596 0.00225104
1599 0.00197149
1602 0.0020795
1605 0.00211998
1608 0.00189539
1611 0.00180597
1614 0.00198826
1617 0.00205607
1620 0.00272097
1623 0.00272912
1626 0.00305877
1629 0.00388753
1632 0.00558965
1635 0.0107102
1638 0.0255528
1641 0.0595252
1644 0.0980991
1647 0.101137
1650 0.0474392
1653 0.0177277
1656 0.00836004
1659 0.00531047
1662 0.00440242
1665 0.00416482
1668 0.00513764
1671 0.00764965
1674 0.0132273
1677 0.0219445
1680 0.0246449
1683 0.0162106
1686 0.00844239
1689 0.00606985
1692 0.00576449
1695 0.00679079
1698 0.00979548
1701 0.0167247
1704 0.0354505
1707 0.0766859
1710 0.140946
1713 0.177094
1716 0.123558
1719 0.0526658
1722 0.0254948
1725 0.0142247
1728 0.00891419
1731 0.00706456
1734 0.00761831
1737 0.011461
1740 0.0227745
1743 0.0365645
1746 0.0422886
1749 0.0250126
1752 0.0123885
1755 0.00766784
1758 0.00427585
1761 0.00260353
1764 0.00191515
1767 0.0016754
1770 0.00149231
1773 0.00130673
1776 0.000794026
1779 0.00105948
1782 0.00098605
1785 0.00139574
1788 0.00156631
1791 0.00181388
1794 0.0025516
1797 0.0040679
1800 0.00810584
1803 0.0187799
1806 0.0333982
1809 0.0452144
1812 0.0363792
1815 0.0151643
1818 0.00817657
1821 0.00577347
1824 0.00567269
1827 0.00801298
1830 0.0144321
1833 0.0297193
1836 0.0579281
1839 0.0824444
1842 0.0739673
1845 0.044969
1848 0.0259789
1851 0.0135269
1854 0.00620102
1857 0.00326988
1860 0.00238096
1863 0.00189563
1866 0.00126876
1869 0.000590989
1872 0.000429943
1875 0.000503945
1878 0.000613361
1881 0.000805581
1884 0.0011751
1887 0.00165319
1890 0.00366155
1893 0.00678332
1896 0.0141256
1899 0.0250263
1902 0.0323916
1905 0.0220102
1908 0.00779265
1911 0.00330789
1914 0.00241546
1917 0.00244509
1920 0.0040792
1923 0.00795973
1926 0.0146384
1929 0.0211893
1932 0.0228388
1935 0.0140349
1938 0.00669395
1941 0.00392191
1944 0.00395429
1947 0.00599738
1950 0.0114183
1953 0.0261333
1956 0.0490436
1959 0.0715805
1962 0.077136
1965 0.0349979
1968 0.0143295
1971 0.00744105
1974 0.00573781
1977 0.00714692
1980 0.011457
1983 0.0208408
1986 0.033238
1989 0.0386436
1992 0.0292301
1995 0.0161131
1998 0.00813959
2001 0.00513844
2004 0.00614078
2007 0.00983567
2010 0.0203318
2013 0.0363572
2016 0.0550017
2019 0.065086
2022 0.0304342
2025 0.0111009
2028 0.00631279
2031 0.00457142
2034 0.00416589
2037 0.00465282
2040 0.00669315
2043 0.00864061
2046 0.0081563
2049 0.0062928
2052 0.0054673
2055 0.00530061
2058 0.00692517
2061 0.0116679
2064 0.0231717
2067 0.0450853
2070 0.0691819
2073 0.0843914
2076 0.0648349
2079 0.033783
2082 0.0169322
2085 0.0092003
2088 0.00512087
2091 0.0030952
2094 0.00192281
2097 0.00159986
2100 0.00115553
2103 0.00123024
2106 0.00143357
2109 0.00171262
2112 0.00295102
2115 0.00510956
2118 0.0100625
2121 0.0184982
2124 0.0289869
2127 0.0314223
2130 0.0242047
2133 0.0160187
2136 0.0115092
2139 0.00911862
2142 0.00828857
2145 0.0115419
2148 0.0196811
2151 0.0260014
2154 0.0301449
2157 0.022602
2160 0.0113218
2163 0.00743722
2166 0.00698676
2169 0.00959871
2172 0.0159134
2175 0.0283645
2178 0.0425647
2181 0.0507473
2184 0.036935
2187 0.0158047
2190 0.00690871
2193 0.00404682
2196 0.00427115
2199 0.00731189
2202 0.00963653
2205 0.0141205
2208 0.0153907
2211 0.00840012
2214 0.00407202
2217 0.00349994
2220 0.0049655
2223 0.0096793
2226 0.0169089
2229 0.024571
2232 0.027619
2235 0.0210873
2238 0.0136133
2241 0.00920558
2244 0.00690392
2247 0.00681468
2250 0.0103459
2253 0.0147364
2256 0.0187775
2259 0.0190283
2262 0.0115567
2265 0.00673341
2268 0.00583789
2271 0.0081252
2274 0.014027
2277 0.0240104
2280 0.0335341
2283 0.0349555
2286 0.0256407
2289 0.0158195
2292 0.00908383
2295 0.00449242
2298 0.00243074
2301 0.00152013
2304 0.000782536
2307 0.00107678
2310 0.00066561
2313 0.00055528
2316 0.000789551
2319 0.0010243
2322 0.00167562
2325 0.0041086
2328 0.00583702
2331 0.0101488
2334 0.013023
2337 0.005032
2340 0.0027102
2343 0.00296047
2346 0.00456884
2349 0.00767028
2352 0.0106348
2355 0.0122913
2358 0.01195
2361 0.00904504
2364 0.0078932
2367 0.00926776
2370 0.0149392
2373 0.027902
2376 0.0406429
2379 0.0553997
2382 0.0656648
2385 0.0382494
2388 0.0180722
2391 0.0113857
2394 0.0112587
2397 0.0130726
2400 0.016526
2403 0.0190807
2406 0.0182731
2409 0.0129343
2412 0.00812019
2415 0.00763395
2418 0.0088472
2421 0.0122263
2424 0.0179693
2427 0.021823
2430 0.02182
2433 0.0155786
2436 0.0103949
2439 0.00796022
2442 0.0083496
2445 0.0111531
2448 0.0140665
2451 0.0153479
2454 0.0138484
2457 0.0109762
2460 0.010886
2463 0.0145634
2466 0.0235936
2469 0.0363216
2472 0.0477965
2475 0.0547678
2478 0.044494
2481 0.0251132
2484 0.0147405
2487 0.00966853
2490 0.00665668
2493 0.00445607
2496 0.00383287
2499 0.00333905
2502 0.00367549
2505 0.00449261
2508 0.00685813
2511 0.0112802
2514 0.0195405
2517 0.0283728
2520 0.037822
2523 0.0369022
2526 0.0226285
2529 0.0124259
2532 0.00762814
2535 0.00805805
2538 0.00821739
2541 0.0091567
2544 0.00980547
2547 0.00721212
2550 0.00452674
2553 0.00506126
2556 0.00621845
2559 0.00819552
2562 0.0109215
2565 0.0119602
2568 0.010027
2571 0.00835809
2574 0.00785084
2577 0.00907436
2580 0.0127024
2583 0.0160087
2586 0.0191329
2589 0.0195792
2592 0.0135924
2595 0.00688163
2598 0.00470076
2601 0.00284698
2604 0.0025093
2607 0.00113653
2610 0.00165914
2613 0.00160907
2616 0.00144869
2619 0.00264878
2622 0.00571481
2625 0.00751345
2628 0.00968073
2631 0.0110867
2634 0.0119324
2637 0.00958238
2640 0.0098499
2643 0.0133569
2646 0.0212828
2649 0.0311471
2652 0.038099
2655 0.0386752
2658 0.0275101
2661 0.014829
2664 0.00796705
2667 0.00404867
2670 0.00247096
2673 0.00122977
2676 0.00102875
2679 0.000755765
2682 0.000884649
2685 0.00119506
2688 0.00123112
2691 0.00237927
2694 0.0027746
2697 0.0029244
2700 0.00280903
2703 0.00362261
2706 0.00486492
2709 0.00709906
2712 0.00929028
2715 0.0115203
2718 0.0122484
2721 0.0111883
2724 0.00954711
2727 0.0111717
2730 0.0172043
2733 0.0244316
2736 0.030301
2739 0.0358549
2742 0.0283251
2745 0.0158608
2748 0.0098716
2751 0.00792516
2754 0.00738535
2757 0.00704738
2760 0.00698694
2763 0.00614725
2766 0.00568095
2769 0.00724268
2772 0.011286
2775 0.0147359
2778 0.0195515
2781 0.0244964
2784 0.0184034
2787 0.0116478
2790 0.0084712
2793 0.00953418
2796 0.0109669
2799 0.0101245
2802 0.00924547
2805 0.00741407
2808 0.00629471
2811 0.00698738
2814 0.00942851
2817 0.0107246
2820 0.016208
2823 0.019463
2826 0.0114893
2829 0.00443091
2832 0.00196688
2835 0.000618558
2838 0.000396151
2841 0.000290178
2844 0.000808099
2847 0.00173699
2850 0.00324564
2853 0.00587906
2856 0.00899998
2859 0.011629
2862 0.0125694
2865 0.0119244
2868 0.00820774
2871 0.00573678
2874 0.005438
2877 0.00650133
2880 0.00707241
2883 0.00697161
2886 0.00790055
2889 0.00950713
2892 0.014637
2895 0.0212932
2898 0.0284577
2901 0.0319235
2904 0.0290702
2907 0.0219795
2910 0.0146071
2913 0.0120071
2916 0.0116925
2919 0.0104303
2922 0.011654
2925 0.0086773
2928 0.00682747
2931 0.00546425
2934 0.00569076
2937 0.00750308
2940 0.00964937
2943 0.011883
2946 0.00866843
2949 0.00649135
2952 0.00650728
2955 0.00756404
2958 0.00775207
2961 0.00986595
2964 0.00826855
2967 0.00582901
2970 0.00590955
2973 0.00866938
2976 0.0104766
2979 0.0124321
2982 0.0125177
2985 0.00926424
2988 0.00552225
2991 0.0020637
2994 0.00110665
2997 0.000898832
3000 0.000787989
3003 0.00140309
3006 0.00249575
3009 0.0035319
3012 0.0056481
3015 0.0070764
3018 0.00769728
3021 0.00782583
3024 0.00734531
3027 0.0080907
3030 0.00770718
3033 0.00872266
3036 0.00908965
3039 0.010208
3042 0.00888834
3045 0.00755976
3048 0.00901082
3051 0.0100923
3054 0.010695
3057 0.011208
3060 0.00930936
3063 0.00924618
3066 0.00935926
3069 0.010064
3072 0.0117387
3075 0.0124011
3078 0.012217
3081 0.0104782
3084 0.00988421
3087 0.0112894
3090 0.0132095
3093 0.0148832
3096 0.0142818
3099 0.0123296
3102 0.00986057
3105 0.00908755
3108 0.00850815
3111 0.00877214
3114 0.00805764
3117 0.00854957
3120 0.0105697
3123 0.015719
3126 0.0188848
3129 0.0231229
3132 0.0255233
3135 0.0211552
3138 0.0120626
3141 0.00658686
3144 0.00561003
3147 0.00454858
3150 0.00448697
3153 0.0033427
3156 0.00382961
3159 0.00457142
3162 0.00567285
3165 0.00722985
3168 0.0117593
3171 0.0120707
3174 0.0091466
3177 0.00991334
3180 0.0113494
3183 0.0113499
3186 0.0117006
3189 0.0116162
3192 0.0122149
3195 0.0148632
3198 0.0167763
3201 0.0195181
3204 0.0228284
3207 0.0220511
3210 0.0150326
3213 0.0108966
3216 0.00786979
3219 0.00656465
3222 0.00566372
3225 0.00478625
3228 0.00279648
3231 0.00316368
3234 0.00170205
3237 0.00173555
3240 0.00174583
3243 0.000711188
3246 0.00150995
3249 0.00334769
3252 0.00230127
3255 0.00217657
3258 0.00344402
3261 0.00477198
3264 0.00521573
3267 0.00747689
3270 0.0102902
3273 0.0120428
3276 0.013197
3279 0.0125083
3282 0.00751283
3285 0.00399909
3288 0.00207572
3291 0.00165236
3294 0.000894939
3297 0.00135884
3300 0.00159476
3303 0.000228857
3306 0.00124476
3309 0.00283351
3312 0.00414996
3315 0.00208906
3318 0.00307928
3321 0.00261921
3324 0.00198668
3327 0.00310501
3330 0.00299434
3333 0.00479526
3336 0.00390472
3339 0.00858807
3342 0.00936715
3345 0.0128866
3348 0.010843
3351 0.0103805
3354 0.0079089
3357 0.00694204
3360 0.00587852
3363 0.00700098
3366 0.00658526
3369 0.00370261
3372 0.00260679
3375 0.00350919
3378 0.00449704
3381 0.00415549
3384 0.00523471
3387 0.0074079
3390 0.00683862
3393 0.00823402
3396 0.00829379
3399 0.00806129
3402 0.00844311
3405 0.00730933
3408 0.00568858
3411 0.00618562
3414 0.00895488
3417 0.00844878
3420 0.0059694
3423 0.00340027
3426 0.00277632
3429 0.00649219
3432 0.00397209
3435 0.00291335
3438 0.00955809
3441 0.012583
3444 0.0136095
3447 0.0148574
3450 0.0207494
3453 0.01724
3456 0.0156507
3459 0.0187865
3462 0.0158303
3465 0.0153479
3468 0.0186505
3471 0.0182028
3474 0.018449
3477 0.0239186
3480 0.0268984
3483 0.0330084
3486 0.0356801
3487 3.29889e-05