File: constrainednmf/example_data/BaTiO3_xrd_ramp/BTO_345K_tth.xy
0.000000000000000000e+00 0.000284964
3 0.000358072
6 0.000578102
9 0.00277518
12 0.0123691
15 0.0141773
18 0.0134526
21 0.0127364
24 0.0131425
27 0.0130253
30 0.0105149
33 0.00411408
36 0.00287175
39 0.00284647
42 0.00300533
45 0.0030284
48 0.00287046
51 0.00288749
54 0.00296686
57 0.00298486
60 0.0030377
63 0.00304415
66 0.00309069
69 0.00308598
72 0.00314208
75 0.00326276
78 0.0033365
81 0.00350304
84 0.00353846
87 0.00357274
90 0.00352763
93 0.0034357
96 0.00344737
99 0.00334533
102 0.00332385
105 0.00329827
108 0.00332935
111 0.00334975
114 0.00331883
117 0.0033027
120 0.00327908
123 0.00319348
126 0.00317767
129 0.00319068
132 0.00318431
135 0.00311665
138 0.00310924
141 0.00303879
144 0.00310089
147 0.00300913
150 0.00294283
153 0.00296542
156 0.00288637
159 0.00292283
162 0.00290683
165 0.00281087
168 0.002853
171 0.00273119
174 0.00270112
177 0.00270423
180 0.00271851
183 0.00269816
186 0.00258349
189 0.00260663
192 0.00258907
195 0.00252261
198 0.00248814
201 0.00251247
204 0.0024366
207 0.00244686
210 0.00238964
213 0.00238822
216 0.00235861
219 0.00234206
222 0.00237896
225 0.00227165
228 0.00231321
231 0.00240036
234 0.0023177
237 0.00228109
240 0.00230381
243 0.00229064
246 0.00233703
249 0.00238211
252 0.00248598
255 0.002459
258 0.00237485
261 0.00234754
264 0.00243682
267 0.00247103
270 0.00249672
273 0.00254913
276 0.0026272
279 0.0027391
282 0.0028195
285 0.00289087
288 0.00281793
291 0.00283369
294 0.00282188
297 0.00264019
300 0.0024336
303 0.00229369
306 0.00226407
309 0.00227872
312 0.00220285
315 0.0023038
318 0.00233185
321 0.00246292
324 0.00316327
327 0.00692133
330 0.0367824
333 0.104254
336 0.0684439
339 0.00913551
342 0.00305959
345 0.0019815
348 0.00157776
351 0.00144174
354 0.00143557
357 0.00261874
360 0.00443126
363 0.00341551
366 0.00191105
369 0.0010309
372 0.000872615
375 0.00077111
378 0.000697855
381 0.000718842
384 0.00079619
387 0.00083455
390 0.000737405
393 0.000807336
396 0.000758576
399 0.000761799
402 0.000832691
405 0.000850867
408 0.000845883
411 0.00103126
414 0.001279
417 0.00125987
420 0.00116035
423 0.00125438
426 0.00134465
429 0.00119761
432 0.00120414
435 0.00135846
438 0.00152516
441 0.00172528
444 0.00224943
447 0.0026369
450 0.00313818
453 0.00384007
456 0.00481732
459 0.00660956
462 0.0102412
465 0.0212269
468 0.0867401
471 0.699012
474 0.794764
477 0.131052
480 0.0235173
483 0.0101552
486 0.00649942
489 0.00470747
492 0.00345443
495 0.00259218
498 0.00191845
501 0.00171828
504 0.00180963
507 0.00213305
510 0.00251371
513 0.0021799
516 0.00166264
519 0.00102436
522 0.000538882
525 0.000428291
528 0.0001879
531 0.000197509
534 0.000274905
537 5.87684e-05
540 0.000216404
543 0.000171692
546 0.000148448
549 0.000293122
552 0.000383445
555 0.000456939
558 0.000749675
561 0.0011963
564 0.00163942
567 0.00205057
570 0.00381615
573 0.010463
576 0.0651603
579 0.388364
582 0.118965
585 0.0139761
588 0.00485631
591 0.00268837
594 0.00178436
597 0.0015007
600 0.0010238
603 0.00071228
606 0.000604123
609 0.000558378
612 0.000495255
615 0.000619478
618 0.000847979
621 0.00112456
624 0.00199068
627 0.00174635
630 0.00148484
633 0.00168797
636 0.0017095
639 0.00151465
642 0.00147622
645 0.00192105
648 0.0023423
651 0.00336361
654 0.005501
657 0.0091709
660 0.0202217
663 0.0803239
666 0.19131
669 0.237398
672 0.340676
675 0.0605561
678 0.0152735
681 0.00721665
684 0.00458014
687 0.00369241
690 0.00372241
693 0.0026882
696 0.00186178
699 0.00146809
702 0.00106666
705 0.00100939
708 0.000929534
711 0.000770719
714 0.000707093
717 0.000770421
720 0.000798829
723 0.00100522
726 0.00109915
729 0.00123194
732 0.00150482
735 0.00201162
738 0.00396171
741 0.0104687
744 0.0479068
747 0.0872042
750 0.12663
753 0.0375466
756 0.00701519
759 0.00263451
762 0.00174246
765 0.00115673
768 0.00101043
771 0.000972983
774 0.00111118
777 0.00109755
780 0.00131741
783 0.00154034
786 0.00148827
789 0.00177773
792 0.00200233
795 0.00261604
798 0.00303668
801 0.00433403
804 0.00572364
807 0.00857695
810 0.0151397
813 0.0409232
816 0.192322
819 0.461484
822 0.525169
825 0.0908345
828 0.0214174
831 0.00983705
834 0.00625833
837 0.00424091
840 0.00332906
843 0.00265154
846 0.0021185
849 0.00173753
852 0.00131995
855 0.00124183
858 0.00127101
861 0.00118706
864 0.000839898
867 0.000581534
870 0.000781938
873 0.000660336
876 0.000601671
879 0.000563835
882 0.000890718
885 0.000714695
888 0.00055081
891 0.000602347
894 0.000521397
897 0.000597878
900 0.000397256
903 0.000498767
906 0.000343882
909 0.000552775
912 0.000581027
915 0.00085816
918 0.000698725
921 0.00123441
924 0.00121272
927 0.00201221
930 0.00242654
933 0.0041922
936 0.0074085
939 0.0168997
942 0.0636086
945 0.285893
948 0.275958
951 0.153961
954 0.0292203
957 0.00956932
960 0.00481268
963 0.00330758
966 0.00210389
969 0.00191376
972 0.00171465
975 0.00166391
978 0.00220116
981 0.00136462
984 0.00152869
987 0.00126114
990 0.00174918
993 0.00282402
996 0.0069606
999 0.0181617
1002 0.0565504
1005 0.0983606
1008 0.0560956
1011 0.0122019
1014 0.00380226
1017 0.00195471
1020 0.00149346
1023 0.00104893
1026 0.00110803
1029 0.0013408
1032 0.00120756
1035 0.0018777
1038 0.00248453
1041 0.00363949
1044 0.00605988
1047 0.0111608
1050 0.0312192
1053 0.107489
1056 0.113779
1059 0.133848
1062 0.262658
1065 0.0881107
1068 0.0203226
1071 0.00852349
1074 0.00503077
1077 0.00365771
1080 0.00296558
1083 0.00249111
1086 0.00222185
1089 0.00215006
1092 0.00216114
1095 0.00294962
1098 0.00491494
1101 0.0100362
1104 0.035172
1107 0.0711484
1110 0.0678797
1113 0.137564
1116 0.0615026
1119 0.0125557
1122 0.00470786
1125 0.00275056
1128 0.00162336
1131 0.00107373
1134 0.00122177
1137 0.00107631
1140 0.000774781
1143 0.00102674
1146 0.0015242
1149 0.00275512
1152 0.00486352
1155 0.0140715
1158 0.0740041
1161 0.177235
1164 0.0434701
1167 0.00841002
1170 0.00297128
1173 0.00171445
1176 0.00123994
1179 0.000818744
1182 0.000944502
1185 0.000801562
1188 0.000866602
1191 0.00117173
1194 0.00128053
1197 0.00306923
1200 0.00610552
1203 0.0209879
1206 0.0327422
1209 0.040157
1212 0.030957
1215 0.00885045
1218 0.00318809
1221 0.00243359
1224 0.00253211
1227 0.00264237
1230 0.00287557
1233 0.00356899
1236 0.00509468
1239 0.00720463
1242 0.0123673
1245 0.0271177
1248 0.096288
1251 0.227333
1254 0.305704
1257 0.260333
1260 0.0677372
1263 0.0186636
1266 0.0086169
1269 0.00535548
1272 0.00356454
1275 0.00234199
1278 0.00196327
1281 0.00136798
1284 0.000978955
1287 0.000864769
1290 0.000566045
1293 0.000411811
1296 9.54441e-06
1299 0.000203392
1302 0.000210852
1305 0.000463691
1308 0.000519046
1311 9.85062e-05
1314 0.000258309
1317 0.000723165
1320 0.000777073
1323 0.001475
1326 0.00242551
1329 0.00682846
1332 0.0189299
1335 0.017166
1338 0.0124971
1341 0.018705
1344 0.0460362
1347 0.0272679
1350 0.00703262
1353 0.00285486
1356 0.00175606
1359 0.00128118
1362 0.0014699
1365 0.00182686
1368 0.00311507
1371 0.00665493
1374 0.0170625
1377 0.0216483
1380 0.0382494
1383 0.0586656
1386 0.0467298
1389 0.0152575
1392 0.00481342
1395 0.00276346
1398 0.00260832
1401 0.00313493
1404 0.00359954
1407 0.00613688
1410 0.0117489
1413 0.0341282
1416 0.0627968
1419 0.0817733
1422 0.0934812
1425 0.135437
1428 0.089045
1431 0.0216524
1434 0.00895761
1437 0.00523024
1440 0.0038336
1443 0.00332963
1446 0.00277138
1449 0.00341788
1452 0.0051801
1455 0.0130688
1458 0.0455957
1461 0.0608607
1464 0.0421565
1467 0.0219317
1470 0.00620154
1473 0.00350849
1476 0.00319152
1479 0.00350017
1482 0.00426872
1485 0.00643685
1488 0.013045
1491 0.0388038
1494 0.0680496
1497 0.0540019
1500 0.0896019
1503 0.120887
1506 0.0571542
1509 0.0156111
1512 0.00712088
1515 0.00452646
1518 0.00339646
1521 0.00316549
1524 0.00434533
1527 0.00937385
1530 0.0228005
1533 0.0229839
1536 0.0247739
1539 0.044717
1542 0.0287836
1545 0.00751992
1548 0.00332945
1551 0.00206298
1554 0.00199353
1557 0.00197595
1560 0.00306589
1563 0.00511978
1566 0.0112967
1569 0.0379752
1572 0.103096
1575 0.0803569
1578 0.0251723
1581 0.00689094
1584 0.00339781
1587 0.00252422
1590 0.00209643
1593 0.00163273
1596 0.00108882
1599 0.00117302
1602 0.00108283
1605 0.0011557
1608 0.0013637
1611 0.00113316
1614 0.00147679
1617 0.00149407
1620 0.00179868
1623 0.00185403
1626 0.0029947
1629 0.00427929
1632 0.00780473
1635 0.0208221
1638 0.0527213
1641 0.0542474
1644 0.0884754
1647 0.0947361
1650 0.0239764
1653 0.00858995
1656 0.00511609
1659 0.0043518
1662 0.00380646
1665 0.00469143
1668 0.00656175
1671 0.0108559
1674 0.015616
1677 0.0171157
1680 0.0161573
1683 0.0164067
1686 0.00762675
1689 0.00514599
1692 0.00674062
1695 0.00973607
1698 0.0199159
1701 0.0387967
1704 0.0599191
1707 0.0943765
1710 0.113029
1713 0.120812
1716 0.120789
1719 0.0418737
1722 0.014958
1725 0.00944069
1728 0.00770605
1731 0.0102882
1734 0.0166564
1737 0.013794
1740 0.0150957
1743 0.0277894
1746 0.030372
1749 0.0305912
1752 0.0102779
1755 0.00401569
1758 0.00221125
1761 0.00128739
1764 0.00115669
1767 0.000958278
1770 0.000794682
1773 0.000817886
1776 0.000523216
1779 0.000944104
1782 0.000757646
1785 0.000978525
1788 0.00145184
1791 0.00205744
1794 0.00331134
1797 0.00741196
1800 0.0130304
1803 0.0223686
1806 0.0298371
1809 0.0375911
1812 0.0278258
1815 0.0105947
1818 0.00536003
1821 0.00559148
1824 0.00864712
1827 0.0214841
1830 0.041222
1833 0.0320941
1836 0.0267949
1839 0.0451116
1842 0.0831732
1845 0.049635
1848 0.0140118
1851 0.00617866
1854 0.00339686
1857 0.00187036
1860 0.00154948
1863 0.00145526
1866 0.000760643
1869 0.000481364
1872 0.000396377
1875 0.000000000000000000e+00
1878 0.000327622
1881 0.000561819
1884 0.00144557
1887 0.00197184
1890 0.00463173
1893 0.0128251
1896 0.0287435
1899 0.0193601
1902 0.0151191
1905 0.016645
1908 0.00639705
1911 0.00248528
1914 0.00255517
1917 0.00285341
1920 0.00702962
1923 0.011058
1926 0.0158778
1929 0.0141017
1932 0.0181623
1935 0.011687
1938 0.00487533
1941 0.00409624
1944 0.00517693
1947 0.0106081
1950 0.0224278
1953 0.033378
1956 0.0536281
1959 0.0719047
1962 0.0436263
1965 0.0224801
1968 0.00907702
1971 0.00577317
1974 0.0067814
1977 0.0132929
1980 0.0216359
1983 0.017962
1986 0.0233375
1989 0.0306881
1992 0.026275
1995 0.0116063
1998 0.00641475
2001 0.0075846
2004 0.00879206
2007 0.0118171
2010 0.0279998
2013 0.0534056
2016 0.0420665
2019 0.0403528
2022 0.0227437
2025 0.00877988
2028 0.00581657
2031 0.00593317
2034 0.0050261
2037 0.00380099
2040 0.00332078
2043 0.00425566
2046 0.0069454
2049 0.0102321
2052 0.00697333
2055 0.00909089
2058 0.0162478
2061 0.024021
2064 0.0365096
2067 0.0346354
2070 0.0430676
2073 0.0691183
2076 0.0618962
2079 0.0248578
2082 0.00922464
2085 0.00483261
2088 0.00333081
2091 0.0022715
2094 0.00163553
2097 0.00143772
2100 0.00147449
2103 0.00166407
2106 0.00277235
2109 0.00504131
2112 0.0117151
2115 0.0138409
2118 0.00957689
2121 0.00852363
2124 0.0105129
2127 0.021482
2130 0.0340355
2133 0.020049
2136 0.00902215
2139 0.00952882
2142 0.0102939
2145 0.0114981
2148 0.0158881
2151 0.020281
2154 0.0193639
2157 0.0192151
2160 0.00987927
2163 0.00541914
2166 0.00661462
2169 0.0143343
2172 0.0287954
2175 0.035814
2178 0.0320198
2181 0.0261478
2184 0.0256029
2187 0.0101899
2190 0.00405633
2193 0.00368384
2196 0.00564344
2199 0.00827535
2202 0.00883977
2205 0.0148499
2208 0.0107013
2211 0.00381242
2214 0.00386552
2217 0.009234
2220 0.0126881
2223 0.00919241
2226 0.0076753
2229 0.010544
2232 0.0233021
2235 0.027698
2238 0.010594
2241 0.00565333
2244 0.00612518
2247 0.00741115
2250 0.0109075
2253 0.0127902
2256 0.012891
2259 0.0131358
2262 0.00940949
2265 0.00691746
2268 0.0122325
2271 0.0167438
2274 0.0123519
2277 0.0108113
2280 0.0182683
2283 0.0296806
2286 0.0262051
2289 0.0112944
2292 0.00367933
2295 0.00145477
2298 0.0011917
2301 0.000401482
2304 0.000526956
2307 0.00010616
2310 0.000354797
2313 0.000430038
2316 0.000567244
2319 0.000759872
2322 0.0017827
2325 0.0044091
2328 0.011837
2331 0.0100338
2334 0.00347949
2337 0.00182575
2340 0.00316473
2343 0.00468417
2346 0.00594175
2349 0.00465781
2352 0.00524669
2355 0.00905068
2358 0.0129623
2361 0.0116734
2364 0.0106868
2367 0.010928
2370 0.0163213
2373 0.0315977
2376 0.0410016
2379 0.0429208
2382 0.0372223
2385 0.0283807
2388 0.0155559
2391 0.00920733
2394 0.00917955
2397 0.0120451
2400 0.0109033
2403 0.00883628
2406 0.0126376
2409 0.014315
2412 0.00834945
2415 0.0093851
2418 0.0123404
2421 0.010513
2424 0.0140513
2427 0.014802
2430 0.0141749
2433 0.0142795
2436 0.00877601
2439 0.00780982
2442 0.00782567
2445 0.00727601
2448 0.00903231
2451 0.0107574
2454 0.0146246
2457 0.0176353
2460 0.0170133
2463 0.0176688
2466 0.021128
2469 0.0256117
2472 0.0260999
2475 0.037261
2478 0.0394966
2481 0.0198557
2484 0.00792581
2487 0.0043763
2490 0.00366348
2493 0.00296481
2496 0.00344506
2499 0.00322197
2502 0.00361502
2505 0.00584716
2508 0.0121871
2511 0.0185053
2514 0.0175215
2517 0.0235697
2520 0.0279148
2523 0.0252975
2526 0.0144152
2529 0.00671677
2532 0.0048922
2535 0.00492646
2538 0.00655142
2541 0.00790878
2544 0.00703813
2547 0.00705684
2550 0.00702926
2553 0.00546386
2556 0.00432278
2559 0.00363
2562 0.00466596
2565 0.00792299
2568 0.0113655
2571 0.0112924
2574 0.00911712
2577 0.00733442
2580 0.00820044
2583 0.0107848
2586 0.0112305
2589 0.0138441
2592 0.0110619
2595 0.00488352
2598 0.00194127
2601 0.00188417
2604 0.00068731
2607 0.00089157
2610 0.00142913
2613 0.00134714
2616 0.0012118
2619 0.0038304
2622 0.00681275
2625 0.00669343
2628 0.00791016
2631 0.00928176
2634 0.00941075
2637 0.0110299
2640 0.0145579
2643 0.0171362
2646 0.0195046
2649 0.0194689
2652 0.0199605
2655 0.026186
2658 0.0215219
2661 0.00831466
2664 0.00394686
2667 0.00210064
2670 0.00103653
2673 0.00112461
2676 0.0014389
2679 0.00104335
2682 0.000638529
2685 0.00103461
2688 0.000887479
2691 0.000708111
2694 0.00197448
2697 0.00283378
2700 0.00485034
2703 0.00515547
2706 0.00461724
2709 0.00570886
2712 0.00700977
2715 0.00779941
2718 0.0106694
2721 0.0128468
2724 0.0134979
2727 0.0107259
2730 0.011572
2733 0.0175625
2736 0.0222489
2739 0.0203737
2742 0.0205234
2745 0.0149838
2748 0.00718615
2751 0.00440424
2754 0.0042045
2757 0.00561119
2760 0.00922398
2763 0.00822344
2766 0.00528575
2769 0.00620052
2772 0.00926519
2775 0.00988301
2778 0.0154679
2781 0.0181015
2784 0.0159667
2787 0.0107195
2790 0.00511886
2793 0.00354181
2796 0.00437348
2799 0.00625321
2802 0.00737937
2805 0.00813113
2808 0.00652148
2811 0.00811588
2814 0.0119021
2817 0.0121529
2820 0.0104832
2823 0.00884007
2826 0.00420091
2829 0.00091219
2832 0.00106117
2835 0.000714271
2838 0.00168728
2841 0.00131487
2844 0.00371138
2847 0.00251243
2850 0.0032171
2853 0.00527784
2856 0.00478308
2859 0.00473314
2862 0.00780727
2865 0.0118846
2868 0.00911961
2871 0.00490575
2874 0.00477883
2877 0.0037788
2880 0.00565052
2883 0.0083471
2886 0.0115226
2889 0.0129259
2892 0.0115516
2895 0.00992117
2898 0.0143806
2901 0.0203541
2904 0.02354
2907 0.017318
2910 0.010139
2913 0.00723467
2916 0.00796367
2919 0.00747596
2922 0.00578144
2925 0.0056274
2928 0.00506942
2931 0.00558008
2934 0.00814168
2937 0.00568566
2940 0.00429501
2943 0.00584833
2946 0.00572007
2949 0.00420533
2952 0.00381319
2955 0.00467061
2958 0.00577179
2961 0.00600573
2964 0.00585635
2967 0.0058537
2970 0.00589885
2973 0.00436637
2976 0.00645911
2979 0.00539281
2982 0.00545985
2985 0.00509498
2988 0.00177838
2991 6.16025e-05
2994 0.000427989
2997 0.000735418
3000 0.00137102
3003 0.00195216
3006 0.000821022
3009 0.0013296
3012 0.00160832
3015 0.00474756
3018 0.005801
3021 0.00708303
3024 0.00607384
3027 0.00608471
3030 0.00523523
3033 0.00550895
3036 0.00656704
3039 0.00834292
3042 0.00562873
3045 0.00438778
3048 0.00465221
3051 0.00378185
3054 0.00462688
3057 0.0074083
3060 0.00979081
3063 0.00902801
3066 0.00730809
3069 0.00651551
3072 0.00650309
3075 0.009749
3078 0.00971875
3081 0.00831179
3084 0.0047997
3087 0.00581113
3090 0.00653924
3093 0.0100059
3096 0.011997
3099 0.0096715
3102 0.00606783
3105 0.00591397
3108 0.00609346
3111 0.00645774
3114 0.0063121
3117 0.00837625
3120 0.00898615
3123 0.0120503
3126 0.0131044
3129 0.0127172
3132 0.0104736
3135 0.0115347
3138 0.00938813
3141 0.00608019
3144 0.00274182
3147 0.00287234
3150 0.00321264
3153 0.00285875
3156 0.00409184
3159 0.00630547
3162 0.0068967
3165 0.00600116
3168 0.00773003
3171 0.00514876
3174 0.00639351
3177 0.00590791
3180 0.00816621
3183 0.00721974
3186 0.00923042
3189 0.0111515
3192 0.0119056
3195 0.0102401
3198 0.0103111
3201 0.0162012
3204 0.0153733
3207 0.0113691
3210 0.00873281
3213 0.00483451
3216 0.00404693
3219 0.00359576
3222 0.00272451
3225 0.00518679
3228 0.00492822
3231 0.0021388
3234 0.00181468
3237 0.00148782
3240 0.00210967
3243 0.00247372
3246 0.00269067
3249 0.00217077
3252 0.00469187
3255 0.00539141
3258 0.00372084
3261 0.00531219
3264 0.0068448
3267 0.00689366
3270 0.00833181
3273 0.00678662
3276 0.00762884
3279 0.00956627
3282 0.00631724
3285 0.00420489
3288 0.00203363
3291 0.00118381
3294 0.00162275
3297 0.00260206
3300 0.00251932
3303 0.00348124
3306 0.00211432
3309 0.00395455
3312 0.00568218
3315 0.00166411
3318 0.00383767
3321 0.00492998
3324 0.00364703
3327 0.00683837
3330 0.00558467
3333 0.00598546
3336 0.00520536
3339 0.00597103
3342 0.00660576
3345 0.00901233
3348 0.0100184
3351 0.00922734
3354 0.00691925
3357 0.00396124
3360 0.00548166
3363 0.0051851
3366 0.00783485
3369 0.00581466
3372 0.00395519
3375 0.00417681
3378 0.00333827
3381 0.00443216
3384 0.0036121
3387 0.00846435
3390 0.00526807
3393 0.00440629
3396 0.00535111
3399 0.00540472
3402 0.00314536
3405 0.00551826
3408 0.00407589
3411 0.0011515
3414 0.00437894
3417 0.00498099
3420 0.00728709
3423 0.00571008
3426 0.00870174
3429 0.000878859
3432 0.00422865
3435 0.0086521
3438 0.00472132
3441 0.00619637
3444 0.00600558
3447 0.00687235
3450 0.00940144
3453 0.0150071
3456 0.00618248
3459 0.00684148
3462 0.0129936
3465 0.0138788
3468 0.0109663
3471 0.00682192
3474 0.00397806
3477 0.00405192
3480 0.0167741
3483 0.0169052
3486 0.0212753
3487 6.11837e-05