File: constrainednmf/example_data/BaTiO3_xrd_ramp/BTO_380K_tth.xy
0.000000000000000000e+00 0.00150432
3 0.00148268
6 0.0016034
9 0.00359248
12 0.013239
15 0.0149883
18 0.014196
21 0.0133552
24 0.0137198
27 0.0135524
30 0.0110781
33 0.00467766
36 0.00337252
39 0.00333264
42 0.00342004
45 0.00346655
48 0.00338402
51 0.00329001
54 0.00334804
57 0.00337037
60 0.00343379
63 0.00344999
66 0.00346678
69 0.0035415
72 0.00358737
75 0.00362082
78 0.00378355
81 0.00392723
84 0.00403402
87 0.00404113
90 0.00396088
93 0.00394424
96 0.00398768
99 0.00393233
102 0.003886
105 0.00390529
108 0.0039238
111 0.00394113
114 0.00390275
117 0.00396795
120 0.00393776
123 0.00396207
126 0.00392938
129 0.00401238
132 0.00403007
135 0.00394779
138 0.00392345
141 0.00394983
144 0.00395756
147 0.00391855
150 0.00392856
153 0.00391568
156 0.00387589
159 0.00387352
162 0.00393384
165 0.00385364
168 0.00384194
171 0.00386885
174 0.00390735
177 0.00383155
180 0.00384343
183 0.00378545
186 0.00377259
189 0.00381034
192 0.00379863
195 0.00378031
198 0.0037059
201 0.00365599
204 0.00362019
207 0.00369051
210 0.00372564
213 0.00367955
216 0.00366382
219 0.00364426
222 0.00361467
225 0.00378178
228 0.00369262
231 0.00371296
234 0.00368488
237 0.00366576
240 0.00370747
243 0.00372249
246 0.00375333
249 0.00375911
252 0.00381943
255 0.0038193
258 0.00370136
261 0.00387001
264 0.00385798
267 0.00385445
270 0.00391192
273 0.00400639
276 0.00399222
279 0.00411947
282 0.00419458
285 0.00427729
288 0.0042219
291 0.00423155
294 0.00414264
297 0.00393072
300 0.00381425
303 0.00361417
306 0.00354541
309 0.00352282
312 0.00351011
315 0.00351896
318 0.00352927
321 0.00371374
324 0.00449126
327 0.00805853
330 0.0360142
333 0.110611
336 0.0630494
339 0.00947593
342 0.00409846
345 0.00310536
348 0.00288932
351 0.00266722
354 0.00274938
357 0.0038941
360 0.00561175
363 0.00448371
366 0.00305954
369 0.00226202
372 0.00207614
375 0.00185217
378 0.00192227
381 0.00197567
384 0.00197707
387 0.00190617
390 0.0019453
393 0.00181394
396 0.00183932
399 0.00187383
402 0.00197212
405 0.00193276
408 0.00200743
411 0.0022387
414 0.00246921
417 0.00227816
420 0.00218893
423 0.00222475
426 0.00245537
429 0.00216856
432 0.00237153
435 0.00237909
438 0.00256544
441 0.00272086
444 0.00310413
447 0.00351224
450 0.00402254
453 0.00480748
456 0.00588501
459 0.00752624
462 0.0111059
465 0.0223024
468 0.0884332
471 0.708574
474 0.761022
477 0.113852
480 0.0228079
483 0.0106055
486 0.00723271
489 0.00537549
492 0.00408076
495 0.00340039
498 0.00288557
501 0.00249474
504 0.00263376
507 0.00318408
510 0.00331278
513 0.00298845
516 0.002278
519 0.00187593
522 0.00137627
525 0.00134045
528 0.00124001
531 0.00109361
534 0.000842223
537 0.00106454
540 0.00118546
543 0.00117398
546 0.00116845
549 0.00112516
552 0.00136169
555 0.00151642
558 0.00170802
561 0.00208738
564 0.00250607
567 0.0033507
570 0.00479204
573 0.0115003
576 0.070119
579 0.388139
582 0.105246
585 0.0136521
588 0.00542172
591 0.00347009
594 0.00256633
597 0.00203927
600 0.00184656
603 0.00153008
606 0.00159602
609 0.0013536
612 0.00146668
615 0.00153166
618 0.00161651
621 0.00203237
624 0.00304233
627 0.00264605
630 0.0025088
633 0.00249758
636 0.00253051
639 0.00252966
642 0.00240909
645 0.00280727
648 0.00340362
651 0.00459464
654 0.0065503
657 0.0100713
660 0.0204228
663 0.0701957
666 0.192629
669 0.275306
672 0.298525
675 0.0493836
678 0.0145377
681 0.0076068
684 0.0056117
687 0.00469961
690 0.00458825
693 0.00352909
696 0.00288272
699 0.00224425
702 0.00204064
705 0.00195055
708 0.0017093
711 0.00186281
714 0.00144634
717 0.0016306
720 0.00192176
723 0.00212672
726 0.00201758
729 0.00193692
732 0.00252122
735 0.00309989
738 0.00491527
741 0.0115039
744 0.0448397
747 0.0958963
750 0.124537
753 0.0301313
756 0.00715018
759 0.00362358
762 0.00275306
765 0.0024132
768 0.00195676
771 0.0020106
774 0.00217931
777 0.0020406
780 0.00214263
783 0.00233842
786 0.00239465
789 0.0030698
792 0.00320378
795 0.00369459
798 0.00415866
801 0.00500339
804 0.00676736
807 0.00964842
810 0.0163846
813 0.0415866
816 0.185895
819 0.50225
822 0.465265
825 0.0749962
828 0.0204322
831 0.0102275
834 0.00689856
837 0.00512562
840 0.00424652
843 0.00348331
846 0.00325922
849 0.00264992
852 0.00253295
855 0.00255677
858 0.00228277
861 0.00208068
864 0.00172857
867 0.00178923
870 0.00161046
873 0.0015289
876 0.00154348
879 0.00135252
882 0.00185509
885 0.00189027
888 0.00139254
891 0.00145986
894 0.001844
897 0.00162179
900 0.00135531
903 0.00123717
906 0.00139988
909 0.00146806
912 0.0012708
915 0.00103648
918 0.00172124
921 0.00189182
924 0.00239955
927 0.00280107
930 0.00336566
933 0.0053063
936 0.00837903
939 0.0178139
942 0.0642541
945 0.289629
948 0.284401
951 0.12476
954 0.0246237
957 0.00923981
960 0.0053305
963 0.00391431
966 0.00277683
969 0.00263591
972 0.00240259
975 0.00267801
978 0.00241222
981 0.00238851
984 0.00194755
987 0.00219952
990 0.00252608
993 0.00360587
996 0.00716079
999 0.0182975
1002 0.0592316
1005 0.101153
1008 0.0479133
1011 0.010104
1014 0.00393593
1017 0.00230879
1020 0.00217202
1023 0.00200652
1026 0.00164495
1029 0.0020005
1032 0.00222123
1035 0.00251511
1038 0.00332393
1041 0.00429567
1044 0.00655049
1047 0.0115664
1050 0.0286853
1053 0.0939381
1056 0.123187
1059 0.162535
1062 0.247621
1065 0.0627795
1068 0.0178616
1071 0.00834829
1074 0.00531512
1077 0.00425631
1080 0.00332658
1083 0.00288498
1086 0.00263118
1089 0.00257989
1092 0.00294816
1095 0.00369242
1098 0.00524631
1101 0.0102033
1104 0.0303242
1107 0.0711923
1110 0.0791617
1113 0.140531
1116 0.0444771
1119 0.0105513
1122 0.00477027
1125 0.00261159
1128 0.00204849
1131 0.00181839
1134 0.00137073
1137 0.00156558
1140 0.00180699
1143 0.00181408
1146 0.00206518
1149 0.00316534
1152 0.00535091
1155 0.0156775
1158 0.0822837
1161 0.168429
1164 0.0353764
1167 0.00779716
1170 0.00369599
1173 0.00232545
1176 0.00168224
1179 0.00166442
1182 0.00109284
1185 0.00111425
1188 0.00136772
1191 0.00181426
1194 0.00218262
1197 0.00365632
1200 0.00651709
1203 0.0203616
1206 0.0354881
1209 0.0428197
1212 0.0266357
1215 0.00742733
1218 0.00375895
1221 0.00325201
1224 0.00290821
1227 0.00307256
1230 0.00354261
1233 0.00429692
1236 0.00525121
1239 0.00814164
1242 0.0132283
1245 0.0272236
1248 0.0903116
1251 0.234465
1254 0.329999
1257 0.222377
1260 0.0501064
1263 0.0166703
1266 0.00906807
1269 0.00586774
1272 0.00404868
1275 0.00324743
1278 0.0027364
1281 0.00219745
1284 0.00188393
1287 0.0015462
1290 0.00103959
1293 0.00135539
1296 0.0011683
1299 0.00113188
1302 0.000704042
1305 0.00131266
1308 0.00117435
1311 0.00115181
1314 0.00120829
1317 0.00142372
1320 0.00144916
1323 0.00192702
1326 0.00315343
1329 0.00614051
1332 0.016555
1335 0.0196726
1338 0.0139654
1341 0.0255008
1344 0.0499162
1347 0.0183953
1350 0.00590615
1353 0.00337125
1356 0.0025443
1359 0.00213824
1362 0.00203643
1365 0.00244205
1368 0.00341864
1371 0.00627437
1374 0.0155851
1377 0.0238974
1380 0.0418329
1383 0.0635601
1386 0.0406118
1389 0.0115562
1392 0.00536579
1395 0.00403396
1398 0.0037109
1401 0.0039781
1404 0.00500051
1407 0.00705322
1410 0.0118879
1413 0.0291624
1416 0.0622509
1419 0.0854196
1422 0.10457
1425 0.146415
1428 0.0610099
1431 0.017326
1434 0.0088841
1437 0.00595108
1440 0.00463158
1443 0.00417694
1446 0.00395348
1449 0.00444135
1452 0.00656474
1455 0.0141903
1458 0.0468589
1461 0.0620237
1464 0.0433675
1467 0.016853
1470 0.00655679
1473 0.0043096
1476 0.00412337
1479 0.00472627
1482 0.00560892
1485 0.00758573
1488 0.0134434
1491 0.0338418
1494 0.0685659
1497 0.0612869
1500 0.106855
1503 0.114598
1506 0.0396018
1509 0.0131859
1512 0.00750454
1515 0.00540368
1518 0.00447131
1521 0.00459437
1524 0.0055747
1527 0.00924102
1530 0.0216715
1533 0.0250828
1536 0.0307154
1539 0.0473036
1542 0.0212071
1545 0.00685874
1548 0.00388363
1551 0.00335427
1554 0.00311967
1557 0.00320166
1560 0.00397616
1563 0.00655878
1566 0.012416
1569 0.0417373
1572 0.107356
1575 0.0728552
1578 0.0198675
1581 0.00715877
1584 0.00457008
1587 0.00325888
1590 0.00263593
1593 0.00258496
1596 0.00234774
1599 0.00211219
1602 0.0022804
1605 0.00179635
1608 0.00239392
1611 0.00221643
1614 0.00256685
1617 0.00273707
1620 0.00273024
1623 0.00335163
1626 0.00415843
1629 0.00582516
1632 0.00863627
1635 0.0203788
1638 0.0504345
1641 0.0607903
1644 0.104067
1647 0.0723727
1650 0.0184842
1653 0.00852504
1656 0.00571157
1659 0.0049138
1662 0.00474944
1665 0.0053419
1668 0.00752758
1671 0.0116689
1674 0.0170465
1677 0.0191501
1680 0.0191435
1683 0.0143181
1686 0.00704957
1689 0.00638026
1692 0.00779258
1695 0.00995141
1698 0.0180772
1701 0.0359685
1704 0.0598497
1707 0.0969761
1710 0.120886
1713 0.135237
1716 0.0949898
1719 0.0290016
1722 0.0138588
1725 0.00945053
1728 0.00811314
1731 0.00960901
1734 0.0159317
1737 0.0159347
1740 0.0163237
1743 0.0306201
1746 0.0355976
1749 0.0235962
1752 0.00771043
1755 0.0042561
1758 0.002557
1761 0.00224649
1764 0.00175716
1767 0.00145784
1770 0.00180282
1773 0.00134073
1776 0.00149083
1779 0.00168687
1782 0.00165712
1785 0.00194755
1788 0.0019461
1791 0.00250374
1794 0.00385654
1797 0.00783581
1800 0.012897
1803 0.0233687
1806 0.0331423
1809 0.0394499
1812 0.0221794
1815 0.00840973
1818 0.00558576
1821 0.00613637
1824 0.00866332
1827 0.0177414
1830 0.0372632
1833 0.034864
1836 0.0298457
1839 0.0579067
1842 0.0811691
1845 0.0323356
1848 0.0107053
1851 0.00566402
1854 0.00334616
1857 0.00242376
1860 0.00208248
1863 0.00159425
1866 0.00136676
1869 0.00114347
1872 0.00110466
1875 0.000657946
1878 0.00106388
1881 0.00118577
1884 0.00203925
1887 0.00244505
1890 0.00444834
1893 0.0127815
1896 0.0287646
1899 0.0194713
1902 0.0171274
1905 0.0124451
1908 0.00427394
1911 0.00238789
1914 0.00220913
1917 0.00295717
1920 0.00588359
1923 0.0111742
1926 0.0159875
1929 0.0158179
1932 0.0181218
1935 0.00832675
1938 0.00428612
1941 0.00389521
1944 0.00525508
1947 0.00965631
1950 0.0210854
1953 0.0349997
1956 0.0586177
1959 0.0694848
1962 0.0372359
1965 0.0159238
1968 0.00720103
1971 0.00552423
1974 0.00589292
1977 0.0108391
1980 0.0198475
1983 0.0194698
1986 0.0259899
1989 0.0315105
1992 0.0212941
1995 0.00791619
1998 0.00572394
2001 0.0068349
2004 0.00914564
2007 0.012265
2010 0.0285074
2013 0.053576
2016 0.0443499
2019 0.0369927
2022 0.0153219
2025 0.00655475
2028 0.00542989
2031 0.00573759
2034 0.00497594
2037 0.00384948
2040 0.00319312
2043 0.00503699
2046 0.00854726
2049 0.00889492
2052 0.00622165
2055 0.00792061
2058 0.014045
2061 0.0230643
2064 0.0349624
2067 0.0364034
2070 0.0500854
2073 0.0736506
2076 0.0478301
2079 0.0160289
2082 0.00707418
2085 0.00404597
2088 0.00295643
2091 0.00231055
2094 0.00204524
2097 0.00142852
2100 0.00141362
2103 0.00194148
2106 0.00265344
2109 0.00430874
2112 0.00925432
2115 0.0143989
2118 0.0114203
2121 0.00886302
2124 0.0128335
2127 0.0282411
2130 0.0305967
2133 0.0127114
2136 0.00720675
2139 0.0073156
2142 0.010221
2145 0.0116871
2148 0.0168343
2151 0.0209144
2154 0.0215672
2157 0.0155968
2160 0.00712017
2163 0.00552376
2166 0.00627908
2169 0.0133534
2172 0.0283314
2175 0.0368585
2178 0.0312602
2181 0.0283442
2184 0.0193518
2187 0.00694789
2190 0.00419332
2193 0.00303438
2196 0.00590355
2199 0.00913474
2202 0.0108728
2205 0.0150373
2208 0.00717866
2211 0.00416465
2214 0.00429228
2217 0.00759493
2220 0.0122152
2223 0.0101293
2226 0.00886167
2229 0.0143042
2232 0.0291219
2235 0.020605
2238 0.00717326
2241 0.004854
2244 0.00554747
2247 0.00807435
2250 0.0111459
2253 0.0136201
2256 0.0140881
2259 0.0126721
2262 0.00709355
2265 0.00614932
2268 0.00993086
2271 0.0164889
2274 0.0136741
2277 0.0127376
2280 0.0230602
2283 0.0317311
2286 0.0204248
2289 0.00705777
2292 0.00343282
2295 0.00228808
2298 0.00151741
2301 0.00127526
2304 0.000774689
2307 0.000994778
2310 0.000932264
2313 0.00100014
2316 0.001085
2319 0.00186878
2322 0.0026014
2325 0.00561126
2328 0.0134784
2331 0.00873311
2334 0.00362571
2337 0.0024975
2340 0.00349945
2343 0.00496166
2346 0.00681546
2349 0.00605639
2352 0.00686351
2355 0.011337
2358 0.0126454
2361 0.00948829
2364 0.0108083
2367 0.0122627
2370 0.0167993
2373 0.0325016
2376 0.0430465
2379 0.0442535
2382 0.0352072
2385 0.021695
2388 0.0124918
2391 0.00964021
2394 0.00958276
2397 0.0127238
2400 0.0119945
2403 0.0114633
2406 0.0157151
2409 0.0118066
2412 0.00790751
2415 0.00953352
2418 0.0130631
2421 0.0127423
2424 0.0157489
2427 0.0159578
2430 0.0157945
2433 0.0114421
2436 0.00824714
2439 0.00875019
2442 0.00888674
2445 0.00871219
2448 0.0107488
2451 0.0122313
2454 0.0144989
2457 0.014249
2460 0.0168563
2463 0.018981
2466 0.0224214
2469 0.0271648
2472 0.0307578
2475 0.0429859
2478 0.032125
2481 0.0135825
2484 0.00726247
2487 0.00547907
2490 0.00537023
2493 0.00430429
2496 0.00461847
2499 0.00448912
2502 0.00512021
2505 0.00681039
2508 0.0126049
2511 0.0195552
2514 0.0201328
2517 0.0262677
2520 0.0292899
2523 0.0224212
2526 0.0106646
2529 0.0070458
2532 0.00589886
2535 0.00651992
2538 0.00837869
2541 0.00889731
2544 0.00789107
2547 0.00650413
2550 0.00652936
2553 0.00708187
2556 0.00559062
2559 0.00516312
2562 0.00645357
2565 0.0106034
2568 0.0116445
2571 0.00920914
2574 0.00813412
2577 0.0080757
2580 0.0100465
2583 0.0125717
2586 0.013962
2589 0.0141594
2592 0.00824269
2595 0.00420132
2598 0.00265586
2601 0.00206265
2604 0.00222677
2607 0.00117103
2610 0.00198524
2613 0.0025577
2616 0.00306614
2619 0.00396543
2622 0.00629572
2625 0.00765427
2628 0.00915094
2631 0.00956478
2634 0.00885805
2637 0.00961224
2640 0.0133318
2643 0.0174824
2646 0.0198285
2649 0.0206785
2652 0.0233621
2655 0.026387
2658 0.0142264
2661 0.00565361
2664 0.00312242
2667 0.00234484
2670 0.00163207
2673 0.00166051
2676 0.00203059
2679 0.00194856
2682 0.00163819
2685 0.00148931
2688 0.00153634
2691 0.00175058
2694 0.00241052
2697 0.0038599
2700 0.00556065
2703 0.00459512
2706 0.00487625
2709 0.0064148
2712 0.00693862
2715 0.00796009
2718 0.0098217
2721 0.0117634
2724 0.0114096
2727 0.0119108
2730 0.0127827
2733 0.0183195
2736 0.0228074
2739 0.0210802
2742 0.0175234
2745 0.00959411
2748 0.00561711
2751 0.00367779
2754 0.00424824
2757 0.00586554
2760 0.00776362
2763 0.00734046
2766 0.00535941
2769 0.00717613
2772 0.00939911
2775 0.0115738
2778 0.0172091
2781 0.0170154
2784 0.0128042
2787 0.00770241
2790 0.00523578
2793 0.00433466
2796 0.00442778
2799 0.0065202
2802 0.00758433
2805 0.00596123
2808 0.00438688
2811 0.0079078
2814 0.0113655
2817 0.0119492
2820 0.00971474
2823 0.00636806
2826 0.00310598
2829 0.00147491
2832 0.000678064
2835 0.000630199
2838 0.00129509
2841 0.00209385
2844 0.00281446
2847 0.00393513
2850 0.00350615
2853 0.00597112
2856 0.00496518
2859 0.00607155
2862 0.00981273
2865 0.0099796
2868 0.00521495
2871 0.00437453
2874 0.0046238
2877 0.00486574
2880 0.00490821
2883 0.00863793
2886 0.0110811
2889 0.0118444
2892 0.0103618
2895 0.0112587
2898 0.0161109
2901 0.0228749
2904 0.0207084
2907 0.0114708
2910 0.00764006
2913 0.00704401
2916 0.00795484
2919 0.00668196
2922 0.00497814
2925 0.00491186
2928 0.00463742
2931 0.00611865
2934 0.00805019
2937 0.00536609
2940 0.00602642
2943 0.00586032
2946 0.00448738
2949 0.00409504
2952 0.00427986
2955 0.00568611
2958 0.00682841
2961 0.00559236
2964 0.004944
2967 0.00623151
2970 0.00615013
2973 0.00666768
2976 0.00776561
2979 0.00644812
2982 0.00585487
2985 0.00363799
2988 0.00226474
2991 0.00209208
2994 0.00141626
2997 0.00120975
3000 0.00352071
3003 0.00278315
3006 0.00327516
3009 0.00301685
3012 0.00367533
3015 0.00548369
3018 0.00758134
3021 0.0070708
3024 0.00573098
3027 0.00488005
3030 0.00522568
3033 0.00707877
3036 0.00895396
3039 0.00814439
3042 0.0063019
3045 0.00431315
3048 0.00522974
3051 0.00505365
3054 0.00742166
3057 0.0105213
3060 0.0101327
3063 0.00806067
3066 0.00739529
3069 0.00784249
3072 0.00939208
3075 0.00907946
3078 0.0113148
3081 0.0079016
3084 0.00700266
3087 0.00600001
3090 0.0085676
3093 0.0128794
3096 0.0123148
3099 0.00789462
3102 0.00719021
3105 0.00648956
3108 0.00551035
3111 0.0065559
3114 0.00855517
3117 0.00877341
3120 0.0114089
3123 0.0133797
3126 0.0142929
3129 0.0123518
3132 0.013597
3135 0.0127964
3138 0.00816067
3141 0.00480849
3144 0.00428233
3147 0.00379516
3150 0.00335113
3153 0.00439851
3156 0.0048191
3159 0.00770947
3162 0.00920324
3165 0.00885923
3168 0.00710083
3171 0.00673286
3174 0.00673123
3177 0.00860239
3180 0.00750471
3183 0.0101444
3186 0.0116837
3189 0.0124671
3192 0.0120636
3195 0.0113115
3198 0.0135398
3201 0.0169295
3204 0.0152533
3207 0.0112827
3210 0.00812988
3213 0.00491625
3216 0.00598073
3219 0.00493151
3222 0.00621059
3225 0.00541035
3228 0.0045734
3231 0.00301758
3234 0.00463333
3237 0.00433752
3240 0.00294448
3243 0.00387866
3246 0.00251278
3249 0.0026773
3252 0.00441518
3255 0.00593456
3258 0.00629823
3261 0.00559634
3264 0.00560704
3267 0.00876312
3270 0.00940268
3273 0.00765677
3276 0.00989957
3279 0.0075709
3282 0.00476088
3285 0.00108475
3288 0.00148644
3291 0.00224918
3294 0.00306884
3297 0.00292996
3300 0.00427734
3303 0.00137923
3306 0.00423081
3309 0.00501046
3312 0.00549691
3315 0.00311218
3318 0.00389565
3321 0.00331492
3324 0.00628254
3327 0.00478321
3330 0.00460608
3333 0.00621462
3336 0.00373616
3339 0.00545122
3342 0.00646132
3345 0.00604356
3348 0.0110091
3351 0.00741023
3354 0.00550199
3357 0.00363244
3360 0.00336814
3363 0.00431877
3366 0.00567211
3369 0.00645487
3372 0.00351664
3375 0.00541964
3378 0.00520906
3381 0.00202396
3384 0.00694584
3387 0.00359939
3390 0.00650552
3393 0.00572386
3396 0.00471147
3399 0.00704982
3402 0.00925631
3405 0.0084766
3408 0.00532126
3411 0.00940299
3414 0.00670679
3417 0.0100028
3420 0.00723366
3423 0.00668189
3426 0.00620782
3429 0.00640636
3432 0.00879819
3435 0.00928555
3438 0.0109269
3441 0.0138762
3444 0.0151167
3447 0.0112666
3450 0.0154216
3453 0.013246
3456 0.0156865
3459 0.0172078
3462 0.0196985
3465 0.0105546
3468 0.0221517
3471 0.0206822
3474 0.0206115
3477 0.0265834
3480 0.0221196
3483 0.0408349
3486 0.0284112
3487 0.000380405