File: constrainednmf/example_data/BaTiO3_xrd_ramp/BTO_330K_tth.xy
0.000000000000000000e+00 0.000482103
3 0.000518628
6 0.000702586
9 0.00269351
12 0.0123365
15 0.0141217
18 0.0133531
21 0.0125996
24 0.0129992
27 0.0129161
30 0.0104587
33 0.00402043
36 0.00274529
39 0.00269196
42 0.00288906
45 0.00286724
48 0.00277365
51 0.0028157
54 0.00284985
57 0.00285613
60 0.00291711
63 0.00297935
66 0.00296698
69 0.00301271
72 0.00309245
75 0.00317668
78 0.00325647
81 0.00343828
84 0.00349366
87 0.00352561
90 0.00345367
93 0.00348939
96 0.00344291
99 0.00337605
102 0.00329339
105 0.00332925
108 0.00335533
111 0.00336753
114 0.00337552
117 0.00339725
120 0.00333285
123 0.00331862
126 0.00337683
129 0.00337707
132 0.00335172
135 0.00330048
138 0.00331165
141 0.00325781
144 0.00329785
147 0.0032535
150 0.00329065
153 0.00315524
156 0.00319729
159 0.00324413
162 0.00317364
165 0.00316734
168 0.00312911
171 0.00304361
174 0.00307102
177 0.00303175
180 0.00305212
183 0.00302489
186 0.0029371
189 0.0029194
192 0.00291935
195 0.00286918
198 0.00291793
201 0.00286791
204 0.00274549
207 0.00278119
210 0.00278663
213 0.00288255
216 0.00271484
219 0.00273988
222 0.00278836
225 0.00268908
228 0.00284008
231 0.00282512
234 0.00277145
237 0.00277477
240 0.00279544
243 0.00270719
246 0.00273128
249 0.00283057
252 0.00283693
255 0.0027771
258 0.00285074
261 0.00287284
264 0.00291552
267 0.00281101
270 0.0029441
273 0.00312938
276 0.00297871
279 0.00320106
282 0.00321644
285 0.00328567
288 0.00332004
291 0.00328344
294 0.00330468
297 0.00312059
300 0.00285712
303 0.00280474
306 0.00264236
309 0.00263182
312 0.0027404
315 0.00272806
318 0.0027759
321 0.00285061
324 0.00356668
327 0.00731064
330 0.0374184
333 0.103355
336 0.0708205
339 0.00969977
342 0.00349726
345 0.00240987
348 0.00205292
351 0.00188468
354 0.0019423
357 0.0029564
360 0.00486781
363 0.00393941
366 0.0023905
369 0.00142503
372 0.00123861
375 0.00105402
378 0.00104192
381 0.00116507
384 0.00123909
387 0.00112894
390 0.00122294
393 0.00105985
396 0.00111811
399 0.00114847
402 0.00117541
405 0.00103377
408 0.00122681
411 0.001471
414 0.0017313
417 0.0016957
420 0.00139265
423 0.00153994
426 0.00181755
429 0.00152517
432 0.00161767
435 0.00165803
438 0.00184423
441 0.00208554
444 0.00246308
447 0.00286682
450 0.00343028
453 0.0041541
456 0.00499536
459 0.00698099
462 0.0105247
465 0.0214572
468 0.0859356
471 0.688362
474 0.8085
477 0.137716
480 0.0243779
483 0.0106114
486 0.00679546
489 0.00479688
492 0.00352865
495 0.00278802
498 0.00222324
501 0.00188629
504 0.0020137
507 0.00238392
510 0.00276574
513 0.00227053
516 0.00201424
519 0.00118223
522 0.000751449
525 0.000544685
528 0.00051689
531 0.000434881
534 0.000288677
537 0.000443782
540 0.000508834
543 0.000350589
546 0.000542831
549 0.000419853
552 0.000586382
555 0.00070367
558 0.000975663
561 0.00138363
564 0.00173978
567 0.00236039
570 0.00407221
573 0.0105735
576 0.0633313
579 0.384833
582 0.124975
585 0.0147229
588 0.00515877
591 0.00289164
594 0.00196983
597 0.00170124
600 0.00114221
603 0.00106576
606 0.000565537
609 0.000648355
612 0.000830859
615 0.000771516
618 0.000893402
621 0.00131465
624 0.00228926
627 0.00192011
630 0.00180456
633 0.00172762
636 0.00195832
639 0.00155705
642 0.00192014
645 0.00217424
648 0.00266325
651 0.00385881
654 0.00582862
657 0.00921989
660 0.0200346
663 0.0816646
666 0.19108
669 0.230735
672 0.3458
675 0.06574
678 0.016068
681 0.00756794
684 0.00484189
687 0.00387499
690 0.00403302
693 0.00331389
696 0.00211508
699 0.00159876
702 0.00133302
705 0.00112937
708 0.00114529
711 0.000986195
714 0.00102615
717 0.000897487
720 0.00116433
723 0.00120954
726 0.00135118
729 0.00133913
732 0.00160705
735 0.00210383
738 0.00404252
741 0.010748
744 0.0483881
747 0.0859335
750 0.126111
753 0.0407987
756 0.00742414
759 0.00313965
762 0.00174523
765 0.00131061
768 0.00111083
771 0.00117082
774 0.00109902
777 0.00124809
780 0.00134457
783 0.00138471
786 0.00172881
789 0.00205376
792 0.00216123
795 0.00254352
798 0.00312668
801 0.00415617
804 0.00577626
807 0.00862287
810 0.0152442
813 0.0402934
816 0.191349
819 0.451894
822 0.539792
825 0.0982222
828 0.022317
831 0.0102135
834 0.00645546
837 0.00452709
840 0.00340602
843 0.00267117
846 0.00210661
849 0.0016628
852 0.00134254
855 0.00134831
858 0.0013639
861 0.001142
864 0.00080323
867 0.000831337
870 0.000657939
873 0.000682357
876 0.000698429
879 0.000656595
882 0.00099306
885 0.000791864
888 0.000767522
891 0.000717237
894 0.000604228
897 0.000614399
900 0.000440663
903 0.000493785
906 0.000339059
909 0.000509206
912 0.000621481
915 0.000309692
918 0.000710678
921 0.00119114
924 0.0012486
927 0.00173863
930 0.00277862
933 0.00391027
936 0.00695389
939 0.0167326
942 0.0629939
945 0.279666
948 0.278887
951 0.162597
954 0.0313383
957 0.00946549
960 0.00509632
963 0.003248
966 0.00215842
969 0.0016937
972 0.00151161
975 0.00165138
978 0.0016945
981 0.00156361
984 0.00127006
987 0.00142872
990 0.00179254
993 0.00287162
996 0.00679634
999 0.0175367
1002 0.0550859
1005 0.0979482
1008 0.0582585
1011 0.0131107
1014 0.00369127
1017 0.00148933
1020 0.00139349
1023 0.00119136
1026 0.000998895
1029 0.00111764
1032 0.00137004
1035 0.00174772
1038 0.00233046
1041 0.00364591
1044 0.00573006
1047 0.0110699
1050 0.0314769
1053 0.108444
1056 0.114426
1059 0.129926
1062 0.258351
1065 0.0983816
1068 0.021763
1071 0.00873545
1074 0.00490966
1077 0.00353098
1080 0.00271402
1083 0.00246301
1086 0.00201277
1089 0.00212978
1092 0.00215212
1095 0.00273631
1098 0.00484412
1101 0.00969549
1104 0.0349132
1107 0.0709584
1110 0.0669716
1113 0.132584
1116 0.068142
1119 0.0130647
1122 0.00475739
1125 0.00225541
1128 0.00134686
1131 0.00116821
1134 0.000621467
1137 0.000535015
1140 0.000686247
1143 0.00106229
1146 0.00156263
1149 0.00218175
1152 0.0045434
1155 0.0133537
1158 0.0708795
1161 0.178478
1164 0.0473702
1167 0.00844932
1170 0.00343378
1173 0.00189479
1176 0.00123427
1179 0.000819209
1182 0.00044473
1185 0.000616427
1188 0.000640075
1191 0.000989292
1194 0.00137583
1197 0.00240538
1200 0.0062719
1203 0.0212533
1206 0.0320942
1209 0.0399271
1212 0.0319018
1215 0.00981949
1218 0.00348895
1221 0.00247382
1224 0.00237721
1227 0.00246599
1230 0.00287035
1233 0.00358464
1236 0.00497251
1239 0.00740947
1242 0.0124344
1245 0.0268857
1248 0.0962094
1251 0.225041
1254 0.299662
1257 0.269137
1260 0.0748321
1263 0.0195362
1266 0.00903552
1269 0.00539132
1272 0.00333427
1275 0.00232283
1278 0.0019259
1281 0.00114073
1284 0.000742915
1287 0.000826151
1290 0.000773944
1293 0.000497517
1296 0.000377136
1299 0.000138805
1302 0.000653496
1305 0.000590301
1308 0.000553896
1311 0.000471912
1314 0.000647817
1317 0.000746916
1320 0.00114645
1323 0.0011804
1326 0.0025011
1329 0.00697771
1332 0.0193711
1335 0.0169908
1338 0.012683
1341 0.018203
1344 0.0427466
1347 0.0312224
1350 0.00827421
1353 0.0034954
1356 0.00197454
1359 0.00184375
1362 0.00161636
1365 0.0019859
1368 0.00327668
1371 0.0066048
1374 0.0171446
1377 0.0221239
1380 0.0384671
1383 0.0573909
1386 0.0481818
1389 0.0173669
1392 0.00557424
1395 0.00352906
1398 0.00293427
1401 0.00349623
1404 0.00412284
1407 0.00628623
1410 0.011874
1413 0.0350257
1416 0.0622441
1419 0.0817451
1422 0.0938462
1425 0.128596
1428 0.0995881
1431 0.0238911
1434 0.00934752
1437 0.00554125
1440 0.00434699
1443 0.00376107
1446 0.00321883
1449 0.00380123
1452 0.00578555
1455 0.0130777
1458 0.044571
1461 0.0618759
1464 0.042036
1467 0.0246794
1470 0.00719913
1473 0.00457839
1476 0.0034184
1479 0.00370292
1482 0.00503727
1485 0.00693893
1488 0.0133587
1491 0.039676
1494 0.0677156
1497 0.0552358
1500 0.0854942
1503 0.120587
1506 0.0653332
1509 0.0173669
1512 0.00775427
1515 0.00493147
1518 0.00391757
1521 0.00412161
1524 0.00459334
1527 0.00952722
1530 0.024077
1533 0.023162
1536 0.0247657
1539 0.0438344
1542 0.0317604
1545 0.00891699
1548 0.00392186
1551 0.00251275
1554 0.00263409
1557 0.00263504
1560 0.00348391
1563 0.00543891
1566 0.0112037
1569 0.0378155
1572 0.102265
1575 0.0842167
1578 0.0284596
1581 0.00808402
1584 0.00402019
1587 0.00287474
1590 0.00203437
1593 0.00182021
1596 0.00187181
1599 0.00139126
1602 0.00167747
1605 0.00144739
1608 0.00125718
1611 0.00120227
1614 0.00155265
1617 0.00204595
1620 0.00169637
1623 0.00275382
1626 0.00338068
1629 0.00468617
1632 0.00784473
1635 0.0213866
1638 0.0531474
1641 0.0548009
1644 0.083194
1647 0.10099
1650 0.027745
1653 0.00973605
1656 0.00569652
1659 0.00458922
1662 0.00409826
1665 0.00520598
1668 0.00710298
1671 0.0116698
1674 0.0157974
1677 0.0178082
1680 0.0164721
1683 0.0169622
1686 0.00861098
1689 0.00612837
1692 0.0071191
1695 0.0101786
1698 0.0208056
1701 0.0394818
1704 0.0597446
1707 0.0945121
1710 0.112764
1713 0.118567
1716 0.124998
1719 0.0487271
1722 0.0169445
1725 0.00966765
1728 0.00809591
1731 0.0110504
1734 0.0170859
1737 0.0142376
1740 0.0151109
1743 0.0276175
1746 0.029985
1749 0.0320431
1752 0.0123991
1755 0.00457419
1758 0.00276226
1761 0.00203875
1764 0.00150526
1767 0.00132465
1770 0.0013467
1773 0.00073975
1776 0.000886872
1779 0.000982841
1782 0.000904476
1785 0.000881883
1788 0.00159092
1791 0.00204031
1794 0.00368048
1797 0.00814015
1800 0.0131419
1803 0.0229454
1806 0.0303718
1809 0.0370788
1812 0.0294268
1815 0.0120135
1818 0.00615809
1821 0.00616281
1824 0.00880966
1827 0.0223444
1830 0.0414913
1833 0.0327427
1836 0.028324
1839 0.0421521
1842 0.0797811
1845 0.0568199
1848 0.0164896
1851 0.00684353
1854 0.00355496
1857 0.00252507
1860 0.00167399
1863 0.000820843
1866 0.00109369
1869 0.000835594
1872 7.58479e-05
1875 0.000833736
1878 0.000504356
1881 0.000965649
1884 0.000865558
1887 0.00248348
1890 0.00436288
1893 0.0126458
1896 0.0286401
1899 0.0205661
1902 0.0152028
1905 0.0167626
1908 0.00705415
1911 0.00285287
1914 0.00261964
1917 0.00328971
1920 0.00735764
1923 0.0111515
1926 0.0156942
1929 0.0140091
1932 0.0179562
1935 0.0129043
1938 0.00519538
1941 0.00388667
1944 0.00530694
1947 0.010721
1950 0.0224271
1953 0.0326878
1956 0.0524426
1959 0.0719512
1962 0.0463569
1965 0.0249008
1968 0.00926724
1971 0.00632246
1974 0.00682096
1977 0.0131993
1980 0.0210826
1983 0.0179629
1986 0.0223856
1989 0.0307445
1992 0.0268695
1995 0.0134867
1998 0.00666076
2001 0.00757423
2004 0.00872514
2007 0.0112914
2010 0.0266815
2013 0.0533942
2016 0.0425766
2019 0.0401206
2022 0.0245835
2025 0.00920084
2028 0.00604407
2031 0.00618948
2034 0.0051272
2037 0.00373237
2040 0.00305723
2043 0.00413203
2046 0.00643563
2049 0.00983044
2052 0.00797442
2055 0.00901261
2058 0.0167145
2061 0.0238977
2064 0.0374806
2067 0.0348466
2070 0.041912
2073 0.066254
2076 0.0645858
2079 0.0292807
2082 0.00956512
2085 0.00554953
2088 0.00341937
2091 0.00216639
2094 0.00189086
2097 0.00161705
2100 0.00138158
2103 0.00200667
2106 0.00267106
2109 0.00553767
2112 0.0120648
2115 0.0135145
2118 0.0101836
2121 0.00887115
2124 0.0107824
2127 0.0191423
2130 0.033124
2133 0.0233888
2136 0.0102734
2139 0.00978144
2142 0.0103993
2145 0.0120237
2148 0.0161018
2151 0.0200981
2154 0.0195965
2157 0.0197824
2160 0.0113129
2163 0.00604582
2166 0.00692089
2169 0.0144498
2172 0.0288809
2175 0.0350449
2178 0.0336175
2181 0.0261581
2184 0.0269618
2187 0.0123258
2190 0.0046106
2193 0.0037231
2196 0.00601474
2199 0.00886569
2202 0.00868025
2205 0.013739
2208 0.0116581
2211 0.00451805
2214 0.00469637
2217 0.0093632
2220 0.0128424
2223 0.00989626
2226 0.00851394
2229 0.0107866
2232 0.0210704
2235 0.029311
2238 0.0128604
2241 0.00631183
2244 0.00636528
2247 0.00826173
2250 0.0113035
2253 0.0130926
2256 0.0136318
2259 0.0136159
2262 0.0102529
2265 0.00748857
2268 0.012772
2271 0.0174079
2274 0.0130193
2277 0.0120105
2280 0.0174581
2283 0.0291782
2286 0.0277748
2289 0.0140149
2292 0.00453182
2295 0.00220968
2298 0.00138783
2301 0.000669604
2304 0.000557949
2307 0.000461763
2310 0.00081818
2313 0.00073605
2316 0.00065989
2319 0.000966554
2322 0.00195315
2325 0.00489965
2328 0.0121292
2331 0.010974
2334 0.00457919
2337 0.00252689
2340 0.00343486
2343 0.00559749
2346 0.0059017
2349 0.00541352
2352 0.00583829
2355 0.00892344
2358 0.0133621
2361 0.0133565
2364 0.0117665
2367 0.011376
2370 0.0167461
2373 0.0321927
2376 0.0413709
2379 0.0437028
2382 0.0384511
2385 0.0297949
2388 0.017772
2391 0.0103351
2394 0.00968389
2397 0.0124618
2400 0.0118325
2403 0.00975292
2406 0.0121538
2409 0.0153135
2412 0.0100383
2415 0.0106376
2418 0.0123432
2421 0.0112026
2424 0.0138943
2427 0.0164906
2430 0.0147929
2433 0.015472
2436 0.0104387
2439 0.00860747
2442 0.00887695
2445 0.00753391
2448 0.00973225
2451 0.0112226
2454 0.0147912
2457 0.0190657
2460 0.0180602
2463 0.0183281
2466 0.0221015
2469 0.0264491
2472 0.0264626
2475 0.0355585
2478 0.0413128
2481 0.0241867
2484 0.0094294
2487 0.00595519
2490 0.00425394
2493 0.00387622
2496 0.00344159
2499 0.00340853
2502 0.0041524
2505 0.00671064
2508 0.0134983
2511 0.0194863
2514 0.0181789
2517 0.023975
2520 0.0287012
2523 0.0266985
2526 0.0169354
2529 0.00800106
2532 0.00571024
2535 0.00548879
2538 0.00714852
2541 0.00781131
2544 0.00760697
2547 0.00730278
2550 0.00790244
2553 0.00538813
2556 0.00455547
2559 0.00428552
2562 0.00516768
2565 0.0081637
2568 0.0115064
2571 0.0127978
2574 0.0097172
2577 0.00705064
2580 0.00866686
2583 0.0110564
2586 0.0119443
2589 0.0141365
2592 0.011544
2595 0.00519544
2598 0.00308869
2601 0.00155612
2604 0.00108891
2607 0.00113917
2610 0.00115835
2613 0.00114668
2616 0.0020528
2619 0.00398795
2622 0.00708193
2625 0.00740052
2628 0.00753042
2631 0.010038
2634 0.00996189
2637 0.0128675
2640 0.0147264
2643 0.0167756
2646 0.0191704
2649 0.02047
2652 0.0198264
2655 0.0259015
2658 0.0241848
2661 0.0103189
2664 0.00356497
2667 0.0021539
2670 0.00230251
2673 0.00132767
2676 0.00124195
2679 0.00110529
2682 0.00100134
2685 0.00114741
2688 0.000919678
2691 0.00111143
2694 0.0012177
2697 0.00256918
2700 0.00462787
2703 0.00484119
2706 0.00502701
2709 0.0058853
2712 0.00671562
2715 0.00846501
2718 0.0101332
2721 0.0132895
2724 0.0150287
2727 0.01161
2730 0.0113238
2733 0.0172036
2736 0.0224079
2739 0.0212995
2742 0.0209089
2745 0.0172689
2748 0.00798295
2751 0.00462166
2754 0.00420608
2757 0.00499543
2760 0.00814161
2763 0.00790047
2766 0.0061403
2769 0.0072429
2772 0.00919061
2775 0.0100362
2778 0.0169795
2781 0.0177501
2784 0.0158569
2787 0.0124176
2790 0.00608
2793 0.00427582
2796 0.0037686
2799 0.00443357
2802 0.00667471
2805 0.00799193
2808 0.00669834
2811 0.0076055
2814 0.011576
2817 0.0126672
2820 0.0106077
2823 0.00983928
2826 0.00530171
2829 0.00128578
2832 0.000765742
2835 0.000546589
2838 0.00113791
2841 0.00215294
2844 0.00414618
2847 0.00293475
2850 0.0039912
2853 0.00559185
2856 0.00504363
2859 0.00512059
2862 0.00677862
2865 0.0112706
2868 0.00913607
2871 0.00551847
2874 0.00413126
2877 0.00415857
2880 0.00559035
2883 0.00894808
2886 0.0119072
2889 0.0139091
2892 0.0118976
2895 0.0111955
2898 0.01425
2901 0.0199547
2904 0.0232563
2907 0.020169
2910 0.0122406
2913 0.00726435
2916 0.0078508
2919 0.00870046
2922 0.00691431
2925 0.00532209
2928 0.0056132
2931 0.00693196
2934 0.00806366
2937 0.00728414
2940 0.00550159
2943 0.00693647
2946 0.00639722
2949 0.00562984
2952 0.00366017
2955 0.00535199
2958 0.00580603
2961 0.0067114
2964 0.00760931
2967 0.00811152
2970 0.00633028
2973 0.00551362
2976 0.00752752
2979 0.00735233
2982 0.00612938
2985 0.00553558
2988 0.0023516
2991 0.00185786
2994 0.000582373
2997 0.00130191
3000 0.00197466
3003 0.00332391
3006 0.00326659
3009 0.00212817
3012 0.00379836
3015 0.00426165
3018 0.00713247
3021 0.00766138
3024 0.00684633
3027 0.00609234
3030 0.00583498
3033 0.00688044
3036 0.00733045
3039 0.00706961
3042 0.00747882
3045 0.00532747
3048 0.00466237
3051 0.00537533
3054 0.00483868
3057 0.0089382
3060 0.0107731
3063 0.0114607
3066 0.00825724
3069 0.00665457
3072 0.00899172
3075 0.0100245
3078 0.0110917
3081 0.00970016
3084 0.00709234
3087 0.00629647
3090 0.00784134
3093 0.0112293
3096 0.0140087
3099 0.0129258
3102 0.00920251
3105 0.00691896
3108 0.00698311
3111 0.00752098
3114 0.00724532
3117 0.00904939
3120 0.0122434
3123 0.0123162
3126 0.0147294
3129 0.0129957
3132 0.0125343
3135 0.0141377
3138 0.0114013
3141 0.00604208
3144 0.00394348
3147 0.00453776
3150 0.0028845
3153 0.00416303
3156 0.00390824
3159 0.00606268
3162 0.00817525
3165 0.00893613
3168 0.00830752
3171 0.00855226
3174 0.00721959
3177 0.00727717
3180 0.00872554
3183 0.00768812
3186 0.0106243
3189 0.0129775
3192 0.0125486
3195 0.0114409
3198 0.0123606
3201 0.0137165
3204 0.0164326
3207 0.0136029
3210 0.0107347
3213 0.00678681
3216 0.00481181
3219 0.00349609
3222 0.00276475
3225 0.0068083
3228 0.00615177
3231 0.00306136
3234 0.00294001
3237 0.00287324
3240 0.00192578
3243 0.00187597
3246 0.00361496
3249 0.00232219
3252 0.00462055
3255 0.00440361
3258 0.00555079
3261 0.00530005
3264 0.00586346
3267 0.00520194
3270 0.00697955
3273 0.00585246
3276 0.00678237
3279 0.00879885
3282 0.00711954
3285 0.00370455
3288 0.00136433
3291 0.00151582
3294 0.00239112
3297 0.00138193
3300 0.00170759
3303 0.00173723
3306 0.00141533
3309 0.00393114
3312 0.00471497
3315 0.00225258
3318 0.00209706
3321 0.00214618
3324 0.00347957
3327 0.00453491
3330 0.00651686
3333 0.00451995
3336 0.00549325
3339 0.00442952
3342 0.00438016
3345 0.00710042
3348 0.00963002
3351 0.0112528
3354 0.00866113
3357 0.00473904
3360 0.00331958
3363 0.00430137
3366 0.00382334
3369 0.00574844
3372 0.00262638
3375 0.00357014
3378 0.00319838
3381 0.00395621
3384 0.00421796
3387 0.00513858
3390 0.00529113
3393 0.00640838
3396 0.00256218
3399 0.00312942
3402 0.00506445
3405 0.00512926
3408 0.0025487
3411 0.00161138
3414 0.00336261
3417 0.00371637
3420 0.00735811
3423 0.00520071
3426 0.00453075
3429 0.00317662
3432 0.00751752
3435 0.00393707
3438 0.00627071
3441 0.0079736
3444 0.0133944
3447 0.00880718
3450 0.010279
3453 0.011311
3456 0.0146713
3459 0.013464
3462 0.0127007
3465 0.0137224
3468 0.0144366
3471 0.0150554
3474 0.0188529
3477 0.0106375
3480 0.0243835
3483 0.0141912
3486 0.0100145
3487 0.000257672