File: constrainednmf/example_data/BaTiO3_xrd_ramp/BTO_180K_tth.xy
0.000000000000000000e+00 8.11684e-05
3 0.000239386
6 0.00051766
9 0.00231703
12 0.00982356
15 0.0116937
18 0.0112171
21 0.0106813
24 0.0110621
27 0.0111019
30 0.00911681
33 0.00402692
36 0.00299036
39 0.00304457
42 0.00317527
45 0.00323055
48 0.00318255
51 0.00318945
54 0.00324979
57 0.0032431
60 0.00333377
63 0.00340804
66 0.00335463
69 0.00337798
72 0.00340364
75 0.00352185
78 0.00358923
81 0.00367319
84 0.00373619
87 0.0037826
90 0.00372306
93 0.00364797
96 0.00361619
99 0.0035104
102 0.00349354
105 0.00346813
108 0.00342784
111 0.00336535
114 0.00338665
117 0.00334008
120 0.00327233
123 0.00324866
126 0.00314432
129 0.00322395
132 0.0031759
135 0.00308835
138 0.00304124
141 0.00298088
144 0.00297384
147 0.00293933
150 0.00289126
153 0.00277667
156 0.00277021
159 0.00276821
162 0.00272476
165 0.00266123
168 0.00261467
171 0.00257027
174 0.00251681
177 0.002469
180 0.00244029
183 0.00238069
186 0.00230796
189 0.00228487
192 0.00221157
195 0.00218838
198 0.00218811
201 0.00210467
204 0.00204807
207 0.00202437
210 0.00203934
213 0.00195574
216 0.00189361
219 0.00188419
222 0.00182825
225 0.00184603
228 0.00186404
231 0.00182757
234 0.00180789
237 0.00181252
240 0.00182852
243 0.00178697
246 0.00172045
249 0.00183526
252 0.00177679
255 0.00186712
258 0.0018594
261 0.0017936
264 0.00179039
267 0.00178315
270 0.00186721
273 0.00178887
276 0.00186338
279 0.00200691
282 0.0020402
285 0.00211751
288 0.00220603
291 0.00221485
294 0.0022282
297 0.00211242
300 0.00193917
303 0.00182344
306 0.00177207
309 0.0017929
312 0.00180716
315 0.00182735
318 0.00195005
321 0.00202556
324 0.00274516
327 0.00492304
330 0.0216736
333 0.10979
336 0.0661443
339 0.0104003
342 0.00711349
345 0.00519651
348 0.00177338
351 0.00136832
354 0.00132439
357 0.00200274
360 0.00396531
363 0.0037934
366 0.002358
369 0.00129649
372 0.000860277
375 0.000831176
378 0.000807843
381 0.000922387
384 0.00125883
387 0.00461584
390 0.00466455
393 0.00098182
396 0.000883705
399 0.00090498
402 0.000911678
405 0.000808773
408 0.000965833
411 0.00111058
414 0.00121582
417 0.00128881
420 0.00127344
423 0.00133177
426 0.00142073
429 0.00117976
432 0.00128717
435 0.00125323
438 0.00144992
441 0.00159143
444 0.00206902
447 0.00230273
450 0.00275093
453 0.00347565
456 0.00428515
459 0.00585479
462 0.00874079
465 0.017133
468 0.0614468
471 0.459968
474 0.92817
477 0.156919
480 0.0264889
483 0.010506
486 0.0065527
489 0.00449501
492 0.00337616
495 0.00255293
498 0.00198741
501 0.00223394
504 0.00165772
507 0.00185043
510 0.00222591
513 0.00233871
516 0.00184581
519 0.00117779
522 0.000449618
525 0.000432793
528 0.000262989
531 0.000207511
534 0.00019921
537 0.000114259
540 0.000311771
543 0.000138122
546 0.00028271
549 0.000331455
552 0.000363679
555 0.00053397
558 0.000671816
561 0.000932106
564 0.00146064
567 0.00193134
570 0.00319259
573 0.00792285
576 0.045744
579 0.295124
582 0.186694
585 0.0196761
588 0.00536213
591 0.00297757
594 0.00260708
597 0.00192598
600 0.00113576
603 0.00080043
606 0.000604659
609 0.000497259
612 0.000669872
615 0.000827039
618 0.000653516
621 0.000984386
624 0.00191235
627 0.00202285
630 0.0016162
633 0.00177331
636 0.00174956
639 0.00192015
642 0.00172149
645 0.00285107
648 0.00767717
651 0.00363628
654 0.00465715
657 0.00696341
660 0.0128793
663 0.0313565
666 0.124069
669 0.368391
672 0.25154
675 0.0815532
678 0.0204957
681 0.00816779
684 0.00477007
687 0.00417829
690 0.0031893
693 0.00331693
696 0.00304939
699 0.00714604
702 0.00178048
705 0.000904721
708 0.0010068
711 0.00176813
714 0.000794578
717 0.000672132
720 0.000591942
723 0.000886745
726 0.000694436
729 0.000809991
732 0.000975472
735 0.00158015
738 0.00247992
741 0.00596928
744 0.0212251
747 0.090573
750 0.130477
753 0.0442498
756 0.00919873
759 0.00270792
762 0.00138904
765 0.00101475
768 0.000577537
771 0.000291802
774 0.000647397
777 0.00156087
780 0.00119948
783 0.000633061
786 0.000769995
789 0.00116406
792 0.00122098
795 0.00173913
798 0.00208912
801 0.00300717
804 0.00413029
807 0.00629684
810 0.010669
813 0.0250907
816 0.0990144
819 0.422184
822 0.554927
825 0.143284
828 0.0291286
831 0.0107635
834 0.00579583
837 0.00400283
840 0.00281275
843 0.00199871
846 0.00135863
849 0.00104431
852 0.00073612
855 0.000654783
858 0.000429031
861 0.000491579
864 0.000446102
867 0.000384982
870 0.000215306
873 0.000335877
876 0.000345654
879 0.00267809
882 0.00127955
885 0.000712397
888 0.000813835
891 0.000613287
894 0.000299833
897 8.07213e-05
900 7.3273e-05
903 0.000192303
906 0.000286365
909 0.000206704
912 0.000441662
915 0.000425081
918 0.000487827
921 0.000640334
924 0.00114912
927 0.00179332
930 0.0022832
933 0.00314455
936 0.00561123
939 0.012319
942 0.0412501
945 0.154859
948 0.349477
951 0.194646
954 0.036492
957 0.0112836
960 0.00577777
963 0.00361592
966 0.00240328
969 0.00212723
972 0.00182596
975 0.00229884
978 0.0034024
981 0.00292139
984 0.00218536
987 0.00193932
990 0.00194665
993 0.00251914
996 0.00435182
999 0.0105884
1002 0.0400673
1005 0.0975217
1008 0.0732696
1011 0.0168524
1014 0.00558045
1017 0.00228889
1020 0.00165378
1023 0.00123438
1026 0.0012577
1029 0.00137023
1032 0.00152978
1035 0.0017466
1038 0.00230986
1041 0.00301864
1044 0.00448254
1047 0.00721743
1050 0.014175
1053 0.0350494
1056 0.108938
1059 0.245654
1062 0.205781
1065 0.0965418
1068 0.0360141
1071 0.0123339
1074 0.00614693
1077 0.00396469
1080 0.00324162
1083 0.00233186
1086 0.00228629
1089 0.00226973
1092 0.00280133
1095 0.00444342
1098 0.00384907
1101 0.00604553
1104 0.0132265
1107 0.0405412
1110 0.110386
1113 0.129722
1116 0.0651681
1119 0.0228987
1122 0.00727304
1125 0.00331262
1128 0.00175031
1131 0.0015231
1134 0.000913881
1137 0.000779579
1140 0.000889219
1143 0.00140229
1146 0.00175315
1149 0.00250377
1152 0.00392815
1155 0.0106469
1158 0.0485647
1161 0.125875
1164 0.106556
1167 0.0167213
1170 0.00468539
1173 0.0020449
1176 0.00149268
1179 0.000896312
1182 0.000852776
1185 0.000484705
1188 0.000790863
1191 0.000920901
1194 0.00106728
1197 0.00231684
1200 0.00398459
1203 0.0102067
1206 0.0278479
1209 0.0494706
1212 0.0354021
1215 0.0119725
1218 0.0039196
1221 0.00230585
1224 0.00208406
1227 0.00200924
1230 0.00246675
1233 0.00287939
1236 0.00374129
1239 0.00547924
1242 0.0091704
1245 0.0175729
1248 0.0484047
1251 0.151743
1254 0.325317
1257 0.317632
1260 0.1101
1263 0.0290166
1266 0.0115922
1269 0.00635716
1272 0.003932
1275 0.00263506
1278 0.00167709
1281 0.00126606
1284 0.000893335
1287 0.000813477
1290 0.000524737
1293 0.000828874
1296 0.000514723
1299 0.000106963
1302 0.000394613
1305 0.000176482
1308 0.000263571
1311 0.00037086
1314 0.000629132
1317 0.000385282
1320 0.000849424
1323 0.000690875
1326 0.00156466
1329 0.00244295
1332 0.00455358
1335 0.0114225
1338 0.0273711
1341 0.0430519
1344 0.0327665
1347 0.0181484
1350 0.0113415
1353 0.00530112
1356 0.00288033
1359 0.00180068
1362 0.00162526
1365 0.00153871
1368 0.00172663
1371 0.00312795
1374 0.00591372
1377 0.0160035
1380 0.0423872
1383 0.0663359
1386 0.0504076
1389 0.0186767
1392 0.00837428
1395 0.0040104
1398 0.00272556
1401 0.00261885
1404 0.0028446
1407 0.00379982
1410 0.00624027
1413 0.0121993
1416 0.029532
1419 0.0740489
1422 0.141649
1425 0.150061
1428 0.0788525
1431 0.0354001
1434 0.0147717
1437 0.00695395
1440 0.00428342
1443 0.00318271
1446 0.00271766
1449 0.00296428
1452 0.00407109
1455 0.00962437
1458 0.0243348
1461 0.0506584
1464 0.0692106
1467 0.0311143
1470 0.00838973
1473 0.00383411
1476 0.0027496
1479 0.00259479
1482 0.00335036
1485 0.00442344
1488 0.00705179
1491 0.0138506
1494 0.0322994
1497 0.0761571
1500 0.128301
1503 0.111446
1506 0.0616615
1509 0.0280731
1512 0.0110378
1515 0.00544033
1518 0.003464
1521 0.0030405
1524 0.00321286
1527 0.00457024
1530 0.00894389
1533 0.0218571
1536 0.0412412
1539 0.0460775
1542 0.0286617
1545 0.0135999
1548 0.00501819
1551 0.00244807
1554 0.00176299
1557 0.00162211
1560 0.0022603
1563 0.00355484
1566 0.0079645
1569 0.0273923
1572 0.0593175
1575 0.10233
1578 0.0607647
1581 0.0138514
1584 0.00475624
1587 0.00273915
1590 0.00174819
1593 0.00123293
1596 0.000901685
1599 0.000866362
1602 0.000949441
1605 0.000258914
1608 0.000769281
1611 0.000250245
1614 0.000719842
1617 0.00062112
1620 0.0012928
1623 0.0011859
1626 0.00193861
1629 0.00232007
1632 0.00441558
1635 0.00922046
1638 0.0246566
1641 0.0590005
1644 0.0966086
1647 0.0976947
1650 0.0464715
1653 0.0166811
1656 0.0065521
1659 0.00398504
1662 0.00302967
1665 0.00303102
1668 0.00377758
1671 0.00651469
1674 0.0122704
1677 0.0209174
1680 0.0227693
1683 0.0149841
1686 0.00729721
1689 0.00473649
1692 0.00486609
1695 0.00591082
1698 0.0087643
1701 0.0161128
1704 0.0352189
1707 0.0772403
1710 0.139233
1713 0.172846
1716 0.120364
1719 0.0521557
1722 0.0251124
1725 0.0132406
1728 0.00789213
1731 0.00610243
1734 0.00672602
1737 0.0110478
1740 0.0229259
1743 0.0350152
1746 0.040488
1749 0.0235101
1752 0.011575
1755 0.00743631
1758 0.00353321
1761 0.00158382
1764 0.000742594
1767 0.00055059
1770 0.000348313
1773 0.000108722
1776 0.0001999
1779 0.000165666
1782 0.000231336
1785 0.000393547
1788 0.000744544
1791 0.000651959
1794 0.0019867
1797 0.00324729
1800 0.00745705
1803 0.0185628
1806 0.0328785
1809 0.0443127
1812 0.0351579
1815 0.0146463
1818 0.00796872
1821 0.00500171
1824 0.00522445
1827 0.00747686
1830 0.0143006
1833 0.0301164
1836 0.0583504
1839 0.0802481
1842 0.0707718
1845 0.0440919
1848 0.0266087
1851 0.01314
1854 0.00570821
1857 0.0029838
1860 0.00214204
1863 0.00142276
1866 0.000767988
1869 0.000579351
1872 0.000811872
1875 0.00032945
1878 0.000102503
1881 0.000449043
1884 0.000957608
1887 0.00159095
1890 0.00343025
1893 0.00685894
1896 0.0137646
1899 0.0247358
1902 0.0316713
1905 0.0218033
1908 0.00777742
1911 0.00367281
1914 0.00241825
1917 0.0026355
1920 0.00412129
1923 0.00820497
1926 0.0150272
1929 0.0211204
1932 0.0224566
1935 0.0140116
1938 0.00673922
1941 0.00448596
1944 0.00457328
1947 0.00675015
1950 0.0119745
1953 0.0270869
1956 0.0495851
1959 0.0724621
1962 0.0760602
1965 0.0352459
1968 0.0153506
1971 0.00793303
1974 0.00625612
1977 0.00773803
1980 0.0121534
1983 0.0215677
1986 0.0337038
1989 0.0382304
1992 0.029336
1995 0.0171754
1998 0.00919161
2001 0.00578067
2004 0.00652007
2007 0.0103541
2010 0.0209127
2013 0.0369748
2016 0.0559022
2019 0.0645284
2022 0.0304267
2025 0.0121283
2028 0.00715567
2031 0.00533046
2034 0.00458203
2037 0.00572747
2040 0.00772486
2043 0.00967973
2046 0.00866066
2049 0.00692278
2052 0.00596829
2055 0.00647453
2058 0.00785044
2061 0.012488
2064 0.0247515
2067 0.0466381
2070 0.0697728
2073 0.0833583
2076 0.0641959
2079 0.0343252
2082 0.0175568
2085 0.0103575
2088 0.00585339
2091 0.00348196
2094 0.00260918
2097 0.00238291
2100 0.00210102
2103 0.00179697
2106 0.00195531
2109 0.0025201
2112 0.00410141
2115 0.00636185
2118 0.0111498
2121 0.0198175
2124 0.0293156
2127 0.0309314
2130 0.0237958
2133 0.0167296
2136 0.0125889
2139 0.00975091
2142 0.00879244
2145 0.0123991
2148 0.0199172
2151 0.0264688
2154 0.0301283
2157 0.0226207
2160 0.0122915
2163 0.00829136
2166 0.00775189
2169 0.0107194
2172 0.0164913
2175 0.0284884
2178 0.0425295
2181 0.0504498
2184 0.0365885
2187 0.0160986
2190 0.00687994
2193 0.00473288
2196 0.00472768
2199 0.0079764
2202 0.0107646
2205 0.0142055
2208 0.0150037
2211 0.00838357
2214 0.0046043
2217 0.00351181
2220 0.00551611
2223 0.0101542
2226 0.0175181
2229 0.0246605
2232 0.0262201
2235 0.020225
2238 0.0141043
2241 0.00991671
2244 0.00721546
2247 0.00693433
2250 0.0106646
2253 0.0147538
2256 0.018599
2259 0.0186167
2262 0.0117261
2265 0.00654218
2268 0.00587422
2271 0.00847286
2274 0.0144731
2277 0.0244085
2280 0.033164
2283 0.0336183
2286 0.0247126
2289 0.0156338
2292 0.00985038
2295 0.00438997
2298 0.00246011
2301 0.0012606
2304 0.000615505
2307 9.98016e-05
2310 0.000273055
2313 0.000163167
2316 0.000293111
2319 0.000504453
2322 0.00134706
2325 0.00388174
2328 0.00527822
2331 0.00965413
2334 0.0124697
2337 0.0045031
2340 0.00216246
2343 0.00268756
2346 0.00452382
2349 0.00667103
2352 0.00974174
2355 0.0114746
2358 0.010841
2361 0.00848341
2364 0.00764261
2367 0.00929494
2370 0.0150857
2373 0.0280232
2376 0.040003
2379 0.0546379
2382 0.0636143
2385 0.0367954
2388 0.0166546
2391 0.0116419
2394 0.0107878
2397 0.012694
2400 0.0157304
2403 0.0174711
2406 0.0167638
2409 0.011759
2412 0.007765
2415 0.00644925
2418 0.00789946
2421 0.0114043
2424 0.0165022
2427 0.0211042
2430 0.0200694
2433 0.014877
2436 0.00975536
2439 0.0070385
2442 0.00771667
2445 0.0101248
2448 0.0131869
2451 0.0140634
2454 0.0123403
2457 0.01034
2460 0.0100668
2463 0.0141298
2466 0.0233843
2469 0.0355809
2472 0.046767
2475 0.0525355
2478 0.0414295
2481 0.0239643
2484 0.0140019
2487 0.00894332
2490 0.00565458
2493 0.00365337
2496 0.0025871
2499 0.00236214
2502 0.0028275
2505 0.00328654
2508 0.00586735
2511 0.0106269
2514 0.0180132
2517 0.0270655
2520 0.0364803
2523 0.0352702
2526 0.0214597
2529 0.0109366
2532 0.007031
2535 0.00688969
2538 0.00708868
2541 0.00767035
2544 0.00867161
2547 0.00602692
2550 0.00367605
2553 0.00405386
2556 0.00541076
2559 0.00767173
2562 0.00973225
2565 0.01006
2568 0.00847423
2571 0.0068539
2574 0.00681274
2577 0.00820641
2580 0.0117393
2583 0.0150107
2586 0.0179697
2589 0.0182267
2592 0.011742
2595 0.00623897
2598 0.00372607
2601 0.00189079
2604 0.000900266
2607 0.000678557
2610 0.000491159
2613 0.000727296
2616 0.000808393
2619 0.00232573
2622 0.00418955
2625 0.00717877
2628 0.00838386
2631 0.0109444
2634 0.0111205
2637 0.00905956
2640 0.00914065
2643 0.0133689
2646 0.0211586
2649 0.0301326
2652 0.0366367
2655 0.0367182
2658 0.0262267
2661 0.013888
2664 0.0079529
2667 0.00365058
2670 0.00186659
2673 0.00086343
2676 0.0002006
2679 6.9966e-05
2682 0.000277373
2685 0.000620971
2688 0.00151161
2691 0.00174454
2694 0.00247734
2697 0.00234184
2700 0.00248909
2703 0.00314136
2706 0.00440128
2709 0.00705968
2712 0.00993885
2715 0.0113354
2718 0.0120249
2721 0.0104489
2724 0.00954796
2727 0.0109903
2730 0.0178204
2733 0.0240869
2736 0.0298209
2739 0.0347359
2742 0.0268933
2745 0.0154905
2748 0.0103906
2751 0.00843898
2754 0.00748308
2757 0.0065907
2760 0.00622218
2763 0.00552667
2766 0.00567518
2769 0.00751821
2772 0.0113886
2775 0.0148057
2778 0.0193458
2781 0.0238484
2784 0.0185116
2787 0.0107232
2790 0.00903038
2793 0.0103232
2796 0.0110281
2799 0.00998647
2802 0.00910003
2805 0.00678514
2808 0.00630747
2811 0.00744615
2814 0.0100577
2817 0.0111845
2820 0.0165805
2823 0.0186978
2826 0.0115675
2829 0.00411244
2832 0.00213909
2835 0.00127224
2838 0.000823822
2841 0.000377678
2844 0.00103429
2847 0.00169796
2850 0.00397969
2853 0.0064169
2856 0.00945374
2859 0.0112219
2862 0.0130189
2865 0.0111398
2868 0.00772774
2871 0.00580727
2874 0.00617202
2877 0.00672766
2880 0.0065911
2883 0.00799589
2886 0.00850692
2889 0.0100562
2892 0.0150912
2895 0.0216253
2898 0.0273102
2901 0.0312618
2904 0.0289287
2907 0.0209936
2910 0.0146059
2913 0.0123129
2916 0.0119947
2919 0.0106701
2922 0.0101432
2925 0.00876633
2928 0.00611631
2931 0.00557157
2934 0.0053418
2937 0.00664374
2940 0.00918026
2943 0.0114155
2946 0.00775325
2949 0.00591128
2952 0.00635976
2955 0.00727754
2958 0.00746388
2961 0.00830538
2964 0.00652183
2967 0.00533637
2970 0.00581804
2973 0.00680516
2976 0.00820238
2979 0.0108744
2982 0.0107262
2985 0.007564
2988 0.0042842
2991 0.00142156
2994 0.000845922
2997 0.000358884
3000 0.000000000000000000e+00
3003 0.000484872
3006 0.001341
3009 0.002182
3012 0.00352733
3015 0.00566442
3018 0.00635122
3021 0.0062147
3024 0.0062389
3027 0.00666961
3030 0.00726985
3033 0.00796265
3036 0.00755538
3039 0.00768282
3042 0.00630849
3045 0.00625017
3048 0.00642225
3051 0.00838344
3054 0.00816467
3057 0.00857252
3060 0.00797886
3063 0.00796083
3066 0.00744794
3069 0.00910849
3072 0.00836841
3075 0.0105863
3078 0.0102947
3081 0.0081244
3084 0.00889226
3087 0.0076865
3090 0.0111483
3093 0.01312
3096 0.0109396
3099 0.00968969
3102 0.0073785
3105 0.0062445
3108 0.00622356
3111 0.0051242
3114 0.00544277
3117 0.0063891
3120 0.00959538
3123 0.0124373
3126 0.0169114
3129 0.0197503
3132 0.0227771
3135 0.0189939
3138 0.00922886
3141 0.0058926
3144 0.00386534
3147 0.00299
3150 0.00155495
3153 0.0012911
3156 0.00153858
3159 0.00334803
3162 0.00322806
3165 0.00526407
3168 0.00947638
3171 0.00925433
3174 0.00758226
3177 0.00681941
3180 0.00804337
3183 0.00969569
3186 0.00939669
3189 0.0107034
3192 0.0113672
3195 0.0125704
3198 0.0145594
3201 0.01803
3204 0.0215605
3207 0.0199793
3210 0.0139855
3213 0.00948183
3216 0.00876522
3219 0.00626699
3222 0.00493179
3225 0.00235393
3228 0.00318053
3231 0.000437325
3234 0.0021001
3237 6.4374e-05
3240 0.000859099
3243 0.00131239
3246 0.00115853
3249 0.00269967
3252 0.00204649
3255 0.00219393
3258 0.00477598
3261 0.00441196
3264 0.00660629
3267 0.00789915
3270 0.0104548
3273 0.0117303
3276 0.0139918
3279 0.0129815
3282 0.00754422
3285 0.00442257
3288 0.00372456
3291 0.00131139
3294 0.00284177
3297 0.00228268
3300 0.00159717
3303 0.00270234
3306 0.00412622
3309 0.00554291
3312 0.00538087
3315 0.00562278
3318 0.00457245
3321 0.00407469
3324 0.00271376
3327 0.00425591
3330 0.0056208
3333 0.00739266
3336 0.00807945
3339 0.010379
3342 0.0133971
3345 0.013824
3348 0.0148037
3351 0.0127913
3354 0.0114915
3357 0.0104713
3360 0.0118481
3363 0.00892959
3366 0.00814434
3369 0.00640389
3372 0.00641707
3375 0.00586074
3378 0.00803961
3381 0.0105529
3384 0.00915377
3387 0.00906325
3390 0.011108
3393 0.0100208
3396 0.0103509
3399 0.0112729
3402 0.00848229
3405 0.0100807
3408 0.00853055
3411 0.0074955
3414 0.00687004
3417 0.0076317
3420 0.00375238
3423 0.0050016
3426 0.00111509
3429 0.00445002
3432 0.00371939
3435 0.00383143
3438 0.00765834
3441 0.00887662
3444 0.0115154
3447 0.00916535
3450 0.0129188
3453 0.0123506
3456 0.0115667
3459 0.0105368
3462 0.00894336
3465 0.00875671
3468 0.00861822
3471 0.00805296
3474 0.00625335
3477 0.00399829
3480 0.00685897
3483 0.0110391
3486 0.0132344
3487 0.00171674