File: constrainednmf/example_data/BaTiO3_xrd_ramp/BTO_160K_tth.xy
0.000000000000000000e+00 0.000153751
3 0.000304643
6 0.000563915
9 0.00227055
12 0.00989634
15 0.0116176
18 0.0111351
21 0.0106095
24 0.0109507
27 0.0109768
30 0.00902044
33 0.0039554
36 0.00296949
39 0.00297333
42 0.00311747
45 0.00319104
48 0.00318426
51 0.00314353
54 0.00316873
57 0.00323016
60 0.00325605
63 0.00331556
66 0.00326128
69 0.00334508
72 0.0033923
75 0.00340997
78 0.0035433
81 0.00369371
84 0.00371281
87 0.00370209
90 0.00367298
93 0.0036083
96 0.00354517
99 0.00347978
102 0.00347516
105 0.00343515
108 0.00344647
111 0.00339642
114 0.00337151
117 0.00331185
120 0.00330771
123 0.00328762
126 0.00309684
129 0.00315473
132 0.00319744
135 0.00310656
138 0.00308288
141 0.00302488
144 0.00303108
147 0.00297829
150 0.00291439
153 0.00290426
156 0.00284621
159 0.0028229
162 0.00273467
165 0.00273931
168 0.00266925
171 0.00258222
174 0.00255692
177 0.00252822
180 0.00246207
183 0.00246271
186 0.00235302
189 0.00233175
192 0.00229747
195 0.00220899
198 0.00217491
201 0.00216653
204 0.00206868
207 0.00208366
210 0.00202353
213 0.00200563
216 0.00200601
219 0.0019964
222 0.00196202
225 0.00199262
228 0.00192725
231 0.00187376
234 0.00185678
237 0.00184467
240 0.00187505
243 0.00179989
246 0.00187537
249 0.00185398
252 0.00184583
255 0.00179741
258 0.00179911
261 0.00185918
264 0.00183105
267 0.00191252
270 0.00187884
273 0.0018943
276 0.00192722
279 0.00204646
282 0.00209132
285 0.00214108
288 0.00219154
291 0.00226821
294 0.00231287
297 0.00219107
300 0.0020326
303 0.00194645
306 0.00184991
309 0.00185986
312 0.00188082
315 0.00193449
318 0.00190434
321 0.00215078
324 0.00266646
327 0.00485715
330 0.0204411
333 0.109746
336 0.066322
339 0.0100037
342 0.00638999
345 0.00565272
348 0.00185741
351 0.00146618
354 0.00137669
357 0.00194836
360 0.00395498
363 0.00387429
366 0.00242522
369 0.00120178
372 0.000850892
375 0.00083287
378 0.000797079
381 0.00093334
384 0.00122793
387 0.00441788
390 0.00528211
393 0.0010008
396 0.000886244
399 0.000874904
402 0.000961298
405 0.000944815
408 0.000882514
411 0.00109889
414 0.0012263
417 0.00133735
420 0.00142878
423 0.00136358
426 0.00152859
429 0.0011674
432 0.00115095
435 0.00121997
438 0.00137665
441 0.00159341
444 0.00207847
447 0.00226454
450 0.00277445
453 0.0033908
456 0.00429084
459 0.00572644
462 0.00859981
465 0.0169213
468 0.0588159
471 0.442603
474 0.936683
477 0.159681
480 0.0267105
483 0.0107258
486 0.00644945
489 0.00467865
492 0.00331194
495 0.00255704
498 0.00203534
501 0.00207489
504 0.00184003
507 0.00172093
510 0.00229309
513 0.0023898
516 0.00196014
519 0.00115858
522 0.000523251
525 0.000517727
528 0.000307856
531 0.000222288
534 0.000240745
537 0.000276228
540 0.000325287
543 0.000202514
546 0.000243499
549 0.000330854
552 0.000471553
555 0.000850008
558 0.000610307
561 0.00118491
564 0.00152334
567 0.00214108
570 0.00315936
573 0.00798718
576 0.0445529
579 0.286546
582 0.194007
585 0.020493
588 0.00554589
591 0.00303267
594 0.00245399
597 0.0020184
600 0.00119703
603 0.000881963
606 0.000913526
609 0.000630497
612 0.000638748
615 0.000734806
618 0.000707823
621 0.000970196
624 0.00188794
627 0.00205881
630 0.00173082
633 0.00173581
636 0.00180559
639 0.00185359
642 0.00172547
645 0.0026459
648 0.00899703
651 0.00363524
654 0.00434804
657 0.00688078
660 0.0122965
663 0.0292735
666 0.111776
669 0.375243
672 0.262962
675 0.074418
678 0.0206415
681 0.00827755
684 0.0048573
687 0.00408155
690 0.00335114
693 0.0033056
696 0.00284184
699 0.00827385
702 0.00230019
705 0.00102497
708 0.000945104
711 0.0020534
714 0.00084836
717 0.000740453
720 0.000717123
723 0.000843595
726 0.000760886
729 0.000869127
732 0.00110238
735 0.00164606
738 0.00260661
741 0.00569548
744 0.0196364
747 0.0867585
750 0.137732
753 0.0427997
756 0.0092371
759 0.00269553
762 0.0015094
765 0.000875254
768 0.000711046
771 0.000544211
774 0.000667069
777 0.00124266
780 0.0012466
783 0.000923621
786 0.000993176
789 0.00112344
792 0.00126429
795 0.00176759
798 0.00214005
801 0.0029686
804 0.00415565
807 0.0060905
810 0.0107085
813 0.024284
816 0.0927599
819 0.406944
822 0.577133
825 0.143795
828 0.0296904
831 0.0111415
834 0.0059456
837 0.00393989
840 0.0025476
843 0.00200277
846 0.00140655
849 0.00130441
852 0.000899599
855 0.000602158
858 0.000550303
861 0.000815503
864 0.000606
867 0.000342505
870 0.000460558
873 0.000545104
876 0.000517233
879 0.00247548
882 0.00200092
885 0.000825376
888 0.000873424
891 0.000548232
894 0.000432235
897 0.000554396
900 0.000238682
903 0.000242423
906 0.000263702
909 0.000384629
912 0.000497692
915 0.000439251
918 0.000381091
921 0.000697117
924 0.000968801
927 0.00169492
930 0.00261407
933 0.00318728
936 0.00552157
939 0.0121012
942 0.0375059
945 0.149224
948 0.352787
951 0.199027
954 0.0377636
957 0.0117785
960 0.00560019
963 0.00355699
966 0.00254636
969 0.00190257
972 0.00164043
975 0.00206722
978 0.00439488
981 0.00301283
984 0.00216381
987 0.00175672
990 0.00183093
993 0.00233656
996 0.0041589
999 0.00995276
1002 0.0378137
1005 0.0975032
1008 0.0770422
1011 0.0169536
1014 0.00559349
1017 0.00263063
1020 0.00184151
1023 0.00128691
1026 0.00138956
1029 0.00143782
1032 0.0014697
1035 0.00193451
1038 0.00217934
1041 0.00297615
1044 0.00420819
1047 0.00709547
1050 0.013321
1053 0.0315897
1056 0.0971554
1059 0.249658
1062 0.225654
1065 0.0904663
1068 0.033795
1071 0.0128873
1074 0.00636939
1077 0.00399053
1080 0.00285809
1083 0.00258747
1086 0.00233842
1089 0.00255115
1092 0.00280576
1095 0.00440539
1098 0.00373829
1101 0.00588014
1104 0.0122987
1107 0.0364309
1110 0.107796
1113 0.140235
1116 0.0643511
1119 0.0217874
1122 0.00744298
1125 0.00343243
1128 0.00202841
1131 0.00151283
1134 0.000966275
1137 0.00114627
1140 0.0010571
1143 0.00102673
1146 0.0018145
1149 0.00222142
1152 0.00399197
1155 0.0105937
1158 0.0472808
1161 0.120654
1164 0.112853
1167 0.0183433
1170 0.00515398
1173 0.00204913
1176 0.00144687
1179 0.000898188
1182 0.00101936
1185 0.000833439
1188 0.00075121
1191 0.000908692
1194 0.00115862
1197 0.00208137
1200 0.00360429
1203 0.00959601
1206 0.0271103
1209 0.0505116
1212 0.0364899
1215 0.0117163
1218 0.00426772
1221 0.00264252
1224 0.0021107
1227 0.00219973
1230 0.00231307
1233 0.00290784
1236 0.00368281
1239 0.00557615
1242 0.00882473
1245 0.0166799
1248 0.0440562
1251 0.14345
1254 0.324932
1257 0.33455
1260 0.110695
1263 0.0301327
1266 0.0119427
1269 0.00659554
1272 0.00391535
1275 0.00244307
1278 0.00174558
1281 0.00142404
1284 0.000885655
1287 0.000566085
1290 0.000748669
1293 0.000662809
1296 0.00040183
1299 0.000327922
1302 0.000269109
1305 0.000399194
1308 0.000433941
1311 0.000279412
1314 0.000421572
1317 0.000656148
1320 0.000642371
1323 0.00100656
1326 0.00144522
1329 0.00243843
1332 0.00423106
1335 0.00995946
1338 0.02467
1341 0.0461381
1344 0.0377088
1347 0.018194
1350 0.00990469
1353 0.00500472
1356 0.00328517
1359 0.00212445
1362 0.00171582
1365 0.00173484
1368 0.00185186
1371 0.002934
1374 0.00555342
1377 0.0147119
1380 0.0409112
1383 0.0688419
1386 0.0550864
1389 0.0182926
1392 0.0078974
1395 0.0041687
1398 0.00267939
1401 0.00242375
1404 0.00277072
1407 0.00396577
1410 0.00642241
1413 0.0117949
1416 0.0265464
1419 0.0679309
1422 0.144303
1425 0.162076
1428 0.0814374
1431 0.0325842
1434 0.0145791
1437 0.00749218
1440 0.00450927
1443 0.00335915
1446 0.00291673
1449 0.00310347
1452 0.0043114
1455 0.0091478
1458 0.0238096
1461 0.0509781
1464 0.0703041
1467 0.0329238
1470 0.00903387
1473 0.00419841
1476 0.0033015
1479 0.00288267
1482 0.00326917
1485 0.00477869
1488 0.00664542
1491 0.0129383
1494 0.0287584
1497 0.0717592
1500 0.132785
1503 0.123158
1506 0.0607483
1509 0.0264197
1512 0.0117245
1515 0.00579494
1518 0.00390775
1521 0.0029958
1524 0.00304795
1527 0.00454646
1530 0.00858163
1533 0.0205108
1536 0.0417895
1539 0.0503573
1542 0.030492
1545 0.0131676
1548 0.00534744
1551 0.00302424
1554 0.00227245
1557 0.0020768
1560 0.00276877
1563 0.00381988
1566 0.00822763
1569 0.0265542
1572 0.0577505
1575 0.101919
1578 0.066407
1581 0.0152392
1584 0.00525144
1587 0.00288966
1590 0.00199102
1593 0.00152753
1596 0.00120289
1599 0.00124461
1602 0.000920027
1605 0.00053751
1608 0.000675637
1611 0.000532705
1614 0.000767657
1617 0.00113733
1620 0.0014837
1623 0.00163326
1626 0.00200437
1629 0.00262255
1632 0.00456471
1635 0.00904835
1638 0.0225422
1641 0.0562023
1644 0.0967846
1647 0.106068
1650 0.0466262
1653 0.016327
1656 0.00715637
1659 0.00466496
1662 0.00333978
1665 0.00310167
1668 0.00383687
1671 0.00612819
1674 0.0121652
1677 0.0216301
1680 0.0246515
1683 0.0159908
1686 0.00755522
1689 0.00508911
1692 0.00469762
1695 0.00604953
1698 0.00863198
1701 0.0150976
1704 0.0316364
1707 0.0723698
1710 0.140892
1713 0.183926
1716 0.128845
1719 0.0518743
1722 0.0237174
1725 0.012952
1728 0.00843603
1731 0.00647917
1734 0.00668801
1737 0.0103676
1740 0.0212235
1743 0.0358363
1746 0.0438747
1749 0.0260654
1752 0.0113894
1755 0.00657164
1758 0.00380722
1761 0.0022584
1764 0.00131714
1767 0.000779581
1770 0.000764576
1773 6.32141e-05
1776 0.000581799
1779 0.000401194
1782 0.000183816
1785 0.000542143
1788 0.0008334
1791 0.00132723
1794 0.00191628
1797 0.00332055
1800 0.00704008
1803 0.0182012
1806 0.0329788
1809 0.0458241
1812 0.0381591
1815 0.0155329
1818 0.00757089
1821 0.0051723
1824 0.00546666
1827 0.00751097
1830 0.0129308
1833 0.0271122
1836 0.0560267
1839 0.0851195
1842 0.0802228
1845 0.0464452
1848 0.0242339
1851 0.0128266
1854 0.00616965
1857 0.00361227
1860 0.00208335
1863 0.00140658
1866 0.000942026
1869 0.000716676
1872 0.000679786
1875 0.00054564
1878 0.000498938
1881 0.000751127
1884 0.0011286
1887 0.00169567
1890 0.00292441
1893 0.00609037
1896 0.0139713
1899 0.024953
1902 0.0321699
1905 0.0226823
1908 0.00800111
1911 0.00384003
1914 0.00261326
1917 0.00254245
1920 0.00396335
1923 0.00755485
1926 0.0151226
1929 0.0220362
1932 0.0242349
1935 0.0148227
1938 0.00711818
1941 0.00469503
1944 0.00441954
1947 0.00609662
1950 0.0109626
1953 0.0258777
1956 0.0482168
1959 0.0719761
1962 0.0819794
1965 0.0368816
1968 0.0148916
1971 0.00822043
1974 0.00639576
1977 0.00736452
1980 0.0109247
1983 0.0210043
1986 0.0340095
1989 0.0406965
1992 0.0314881
1995 0.015911
1998 0.00887132
2001 0.0059708
2004 0.00604847
2007 0.00967661
2010 0.0198479
2013 0.036261
2016 0.0553681
2019 0.068469
2022 0.0329125
2025 0.0123056
2028 0.00704333
2031 0.00524975
2034 0.00442667
2037 0.00530609
2040 0.00737747
2043 0.00973656
2046 0.00981805
2049 0.00723898
2052 0.0058914
2055 0.00574224
2058 0.00739089
2061 0.0114399
2064 0.0223105
2067 0.0440943
2070 0.0703637
2073 0.0894527
2076 0.0703661
2079 0.034946
2082 0.0167481
2085 0.00961983
2088 0.00562863
2091 0.00399833
2094 0.0023889
2097 0.00204501
2100 0.00197115
2103 0.00219791
2106 0.00215137
2109 0.0025628
2112 0.00315934
2115 0.00576845
2118 0.00974401
2121 0.0184565
2124 0.0301321
2127 0.034899
2130 0.0273996
2133 0.0172161
2136 0.0115074
2139 0.00893611
2142 0.00845865
2145 0.0116211
2148 0.0197867
2151 0.0273128
2154 0.0321374
2157 0.0250377
2160 0.0122596
2163 0.00774599
2166 0.00699553
2169 0.00924293
2172 0.0155235
2175 0.0290798
2178 0.043089
2181 0.0525824
2184 0.0392515
2187 0.0165397
2190 0.00704531
2193 0.00457422
2196 0.00467266
2199 0.00775416
2202 0.0107671
2205 0.0140852
2208 0.0161476
2211 0.00850099
2214 0.00432759
2217 0.00404853
2220 0.00542535
2223 0.00893502
2226 0.0168196
2229 0.0253932
2232 0.02997
2235 0.0228405
2238 0.0138506
2241 0.00916911
2244 0.00674373
2247 0.00690181
2250 0.0106055
2253 0.0151295
2256 0.0191353
2259 0.0201451
2262 0.0122038
2265 0.00666891
2268 0.00563325
2271 0.00783812
2274 0.0132471
2277 0.0237625
2280 0.0337865
2283 0.0379224
2286 0.0275788
2289 0.0155283
2292 0.00880609
2295 0.00480308
2298 0.00243927
2301 0.00112917
2304 0.00084251
2307 0.000431165
2310 0.000120789
2313 0.000162041
2316 0.000256528
2319 0.000586827
2322 0.00193205
2325 0.00389047
2328 0.00526079
2331 0.00938924
2334 0.0137382
2337 0.00527296
2340 0.00231752
2343 0.00249032
2346 0.00374484
2349 0.00666891
2352 0.0102948
2355 0.0123205
2358 0.0122676
2361 0.00914717
2364 0.00737249
2367 0.00831144
2370 0.0141288
2373 0.0271029
2376 0.0402764
2379 0.0553503
2382 0.0686114
2385 0.0404381
2388 0.0175156
2391 0.0111344
2394 0.00993408
2397 0.0122918
2400 0.0164936
2403 0.0194082
2406 0.0184681
2409 0.0131371
2412 0.00799833
2415 0.00669057
2418 0.0075978
2421 0.0112838
2424 0.0172205
2427 0.021529
2430 0.0223939
2433 0.0158728
2436 0.00954469
2439 0.00696762
2442 0.00758551
2445 0.0108467
2448 0.0139177
2451 0.0152111
2454 0.013782
2457 0.0102238
2460 0.0093116
2463 0.0128855
2466 0.0217015
2469 0.035179
2472 0.0484311
2475 0.0575601
2478 0.0467352
2481 0.025139
2484 0.0138359
2487 0.00869289
2490 0.00577842
2493 0.00381616
2496 0.00276305
2499 0.00233192
2502 0.00249005
2505 0.00355851
2508 0.00531777
2511 0.0100107
2514 0.0184739
2517 0.0272786
2520 0.0379806
2523 0.0389696
2526 0.0234865
2529 0.0116948
2532 0.0069572
2535 0.00667676
2538 0.00742978
2541 0.00790428
2544 0.00959077
2547 0.00678028
2550 0.00382483
2553 0.0033191
2556 0.00494769
2559 0.00754162
2562 0.0106537
2565 0.0119558
2568 0.0101712
2571 0.0075846
2574 0.00659658
2577 0.00784924
2580 0.0114492
2583 0.0154973
2586 0.0183327
2589 0.0200825
2592 0.0137617
2595 0.00671921
2598 0.00408721
2601 0.00215326
2604 0.00166407
2607 0.00119126
2610 0.000860358
2613 0.000945136
2616 0.000906259
2619 0.00228502
2622 0.0042128
2625 0.00746718
2628 0.00916425
2631 0.0116448
2634 0.012169
2637 0.00913576
2640 0.00844
2643 0.0121693
2646 0.0214449
2649 0.0311515
2652 0.0390987
2655 0.041041
2658 0.0289999
2661 0.0148031
2664 0.00801032
2667 0.00378123
2670 0.00235412
2673 0.0013564
2676 0.000673124
2679 0.000411634
2682 0.00112743
2685 0.000793938
2688 0.00194182
2691 0.00272265
2694 0.0029433
2697 0.00308718
2700 0.00267801
2703 0.00306251
2706 0.00436817
2709 0.00700068
2712 0.00976256
2715 0.0120472
2718 0.0132329
2721 0.0120704
2724 0.00981076
2727 0.0106769
2730 0.0171543
2733 0.0243189
2736 0.0310062
2739 0.0380415
2742 0.0310147
2745 0.0165482
2748 0.0100102
2751 0.00832103
2754 0.00728673
2757 0.00752236
2760 0.00744045
2763 0.00611567
2766 0.00532215
2769 0.00772544
2772 0.0107736
2775 0.0148924
2778 0.0202967
2781 0.0263009
2784 0.0205113
2787 0.0116464
2790 0.00870499
2793 0.00918938
2796 0.0106847
2799 0.0117684
2802 0.0100507
2805 0.00804913
2808 0.00657569
2811 0.00768935
2814 0.00985836
2817 0.0118221
2820 0.0159261
2823 0.0200671
2826 0.0130978
2829 0.00445947
2832 0.00228242
2835 0.00108311
2838 0.000113091
2841 0.000366247
2844 0.000903645
2847 0.00133788
2850 0.0032428
2853 0.00565827
2856 0.0092026
2859 0.012631
2862 0.0134363
2865 0.0125443
2868 0.00846666
2871 0.0057465
2874 0.00590747
2877 0.00754315
2880 0.00685648
2883 0.00744845
2886 0.00821964
2889 0.00934116
2892 0.013778
2895 0.0211033
2898 0.02781
2901 0.0337543
2904 0.0331591
2907 0.0233796
2910 0.0157492
2913 0.0126296
2916 0.0112859
2919 0.0114584
2922 0.0118192
2925 0.0100659
2928 0.00609277
2931 0.00576799
2934 0.00589924
2937 0.00697029
2940 0.00920813
2943 0.0115936
2946 0.00895831
2949 0.00569475
2952 0.00695402
2955 0.00749819
2958 0.0076638
2961 0.00896011
2964 0.00797624
2967 0.00506792
2970 0.00554992
2973 0.00682828
2976 0.00872548
2979 0.0115864
2982 0.0126543
2985 0.00841315
2988 0.004273
2991 0.00168333
2994 0.000462218
2997 0.000316627
3000 0.000439595
3003 0.000558709
3006 0.00053897
3009 0.00194649
3012 0.00442295
3015 0.00548607
3018 0.00718299
3021 0.00716556
3024 0.00594982
3027 0.00654608
3030 0.0070537
3033 0.00804028
3036 0.00911636
3039 0.0076718
3042 0.00764936
3045 0.00598449
3048 0.00609157
3051 0.00787757
3054 0.0106806
3057 0.0100375
3060 0.00906849
3063 0.00689285
3066 0.0080397
3069 0.00821535
3072 0.00968076
3075 0.0110127
3078 0.0102273
3081 0.00855344
3084 0.00896768
3087 0.00868397
3090 0.0119049
3093 0.0129895
3096 0.0134677
3099 0.00970809
3102 0.00765442
3105 0.00706959
3108 0.00629812
3111 0.00643728
3114 0.00613489
3117 0.00660843
3120 0.00903336
3123 0.012576
3126 0.0160708
3129 0.0217466
3132 0.0254118
3135 0.0203428
3138 0.0107596
3141 0.00544884
3144 0.00402471
3147 0.00222424
3150 0.00201297
3153 0.00170422
3156 0.00138045
3159 0.00262764
3162 0.00373281
3165 0.00478066
3168 0.00952536
3171 0.0102431
3174 0.00752509
3177 0.0084015
3180 0.00861644
3183 0.010849
3186 0.0114028
3189 0.0114534
3192 0.0108361
3195 0.0125813
3198 0.015809
3201 0.0181487
3204 0.0226096
3207 0.0232651
3210 0.0149519
3213 0.00928096
3216 0.00769442
3219 0.00730772
3222 0.00418406
3225 0.00413105
3228 0.0032231
3231 0.000633891
3234 0.00143438
3237 0.00182811
3240 0.000797382
3243 0.000116225
3246 0.00112574
3249 0.00317618
3252 0.00290181
3255 0.00318173
3258 0.00359506
3261 0.00477557
3264 0.00583539
3267 0.00667295
3270 0.0103673
3273 0.0122938
3276 0.0159888
3279 0.0149566
3282 0.00787022
3285 0.00633224
3288 0.00314829
3291 0.00198353
3294 0.00116275
3297 0.00166119
3300 0.00185031
3303 0.00176526
3306 0.0021207
3309 0.00478789
3312 0.00695754
3315 0.0073379
3318 0.00549458
3321 0.00443819
3324 0.00228664
3327 0.00415401
3330 0.0040027
3333 0.00588092
3336 0.00881627
3339 0.0107232
3342 0.0123055
3345 0.0162455
3348 0.0176463
3351 0.0140184
3354 0.0107926
3357 0.00883389
3360 0.00870949
3363 0.00745
3366 0.00990468
3369 0.00671347
3372 0.00711361
3375 0.00635565
3378 0.00594048
3381 0.00844832
3384 0.00758352
3387 0.00777595
3390 0.00878729
3393 0.00930874
3396 0.0115255
3399 0.00965305
3402 0.00809277
3405 0.00629365
3408 0.00866094
3411 0.00733168
3414 0.00648002
3417 0.0082758
3420 0.00466525
3423 0.00493002
3426 0.00286905
3429 0.00257846
3432 0.00388644
3435 0.00545309
3438 0.00680616
3441 0.0063169
3444 0.00946044
3447 0.0108365
3450 0.0102728
3453 0.00963003
3456 0.00652511
3459 0.00865406
3462 0.00600429
3465 0.0102567
3468 0.00723185
3471 0.00761155
3474 0.00796983
3477 0.0109791
3480 0.00777828
3483 0.0062562
3486 0.00445259
3487 0.0154682