File: constrainednmf/example_data/BaTiO3_xrd_ramp/BTO_230K_tth.xy
0.000000000000000000e+00 0.000500963
3 0.000673035
6 0.000940622
9 0.00272523
12 0.0102065
15 0.0122569
18 0.011739
21 0.0112133
24 0.0116523
27 0.0116597
30 0.00970773
33 0.00444618
36 0.00343579
39 0.00348391
42 0.00362135
45 0.00365747
48 0.00366427
51 0.0036405
54 0.00372079
57 0.00369524
60 0.00374261
63 0.0037421
66 0.00377716
69 0.00387401
72 0.00389088
75 0.00395344
78 0.0039857
81 0.00409779
84 0.00420328
87 0.0041947
90 0.00415876
93 0.0040733
96 0.00407491
99 0.00398908
102 0.00390529
105 0.0038769
108 0.0038425
111 0.00380493
114 0.0038031
117 0.00379344
120 0.00374707
123 0.00371316
126 0.00358374
129 0.00366744
132 0.00355692
135 0.00352103
138 0.00343975
141 0.00342601
144 0.0034023
147 0.00336734
150 0.00328537
153 0.00326904
156 0.00314462
159 0.0031319
162 0.00314306
165 0.00304121
168 0.00302442
171 0.00290427
174 0.00292063
177 0.00290537
180 0.00285933
183 0.00274505
186 0.00269672
189 0.0026614
192 0.00269858
195 0.00259877
198 0.00257307
201 0.00251956
204 0.00246739
207 0.00242479
210 0.00237701
213 0.00230835
216 0.00235277
219 0.00228799
222 0.00230407
225 0.00228229
228 0.0023164
231 0.0023128
234 0.00219169
237 0.00222932
240 0.00226726
243 0.00227058
246 0.00224648
249 0.00231798
252 0.00226704
255 0.00222006
258 0.00223074
261 0.00227909
264 0.00229433
267 0.00233037
270 0.00236724
273 0.00237942
276 0.00240496
279 0.00245835
282 0.00265831
285 0.00258423
288 0.00279363
291 0.00277976
294 0.00278069
297 0.00258276
300 0.00244905
303 0.00234812
306 0.00228493
309 0.0022092
312 0.00221951
315 0.00228094
318 0.00232128
321 0.00250994
324 0.00310518
327 0.00568364
330 0.0272836
333 0.108718
336 0.0658387
339 0.0101746
342 0.0037127
345 0.00230243
348 0.00185019
351 0.0016006
354 0.00162248
357 0.00245905
360 0.00451346
363 0.00390694
366 0.00244488
369 0.00141996
372 0.00107564
375 0.00105398
378 0.00105667
381 0.00112258
384 0.00109339
387 0.00139029
390 0.00119398
393 0.001089
396 0.00117639
399 0.00118337
402 0.00120105
405 0.00112345
408 0.0012778
411 0.00153227
414 0.00161136
417 0.00181056
420 0.00153581
423 0.00161729
426 0.00178213
429 0.00152538
432 0.00159987
435 0.00170922
438 0.00183177
441 0.00205816
444 0.00241879
447 0.00276657
450 0.00345337
453 0.00406822
456 0.00488483
459 0.00651558
462 0.00966268
465 0.01937
468 0.0770527
471 0.555021
474 0.862064
477 0.132717
480 0.0241509
483 0.0105348
486 0.00674593
489 0.00484228
492 0.00365337
495 0.00284541
498 0.00245575
501 0.00204762
504 0.00208575
507 0.00239239
510 0.00272812
513 0.0025206
516 0.00223048
519 0.00141912
522 0.000937992
525 0.000674897
528 0.000609353
531 0.000537914
534 0.000620577
537 0.000670183
540 0.000675475
543 0.00066068
546 0.000686951
549 0.000724906
552 0.000829868
555 0.00086871
558 0.00110804
561 0.00153003
564 0.00193362
567 0.00255085
570 0.00399476
573 0.00942962
576 0.05466
579 0.34223
582 0.143393
585 0.0160816
588 0.00526196
591 0.00336839
594 0.00328923
597 0.00176456
600 0.00131558
603 0.00122667
606 0.00107157
609 0.00109318
612 0.000926142
615 0.00107295
618 0.00105412
621 0.00133944
624 0.00231334
627 0.00221747
630 0.0019524
633 0.00181172
636 0.00193804
639 0.00192324
642 0.00193874
645 0.00226496
648 0.00271405
651 0.00359184
654 0.00498548
657 0.00797968
660 0.015537
663 0.0440836
666 0.193421
669 0.299683
672 0.227617
675 0.0937589
678 0.0186971
681 0.00776054
684 0.00490037
687 0.00355231
690 0.00347476
693 0.0033836
696 0.00249376
699 0.0017641
702 0.00130997
705 0.00123768
708 0.00114369
711 0.000894424
714 0.00084167
717 0.000765691
720 0.00106205
723 0.00119703
726 0.00112598
729 0.00107587
732 0.00151394
735 0.00217751
738 0.00342332
741 0.00806872
744 0.0329748
747 0.105721
750 0.102884
753 0.0464272
756 0.00860279
759 0.00304578
762 0.00169665
765 0.00137318
768 0.000979278
771 0.0009372
774 0.000992285
777 0.0011023
780 0.00111436
783 0.00107684
786 0.00135276
789 0.00167028
792 0.00175935
795 0.00241896
798 0.00284683
801 0.00358419
804 0.00530332
807 0.00756029
810 0.0128772
813 0.0315166
816 0.140104
819 0.484077
822 0.473303
825 0.126016
828 0.0250707
831 0.0102555
834 0.00615713
837 0.00441358
840 0.00299046
843 0.00237931
846 0.00192309
849 0.00153896
852 0.00135093
855 0.00127724
858 0.00120107
861 0.000880126
864 0.00102897
867 0.000679185
870 0.00068712
873 0.000558925
876 0.000731611
879 0.000769685
882 0.000919513
885 0.000923539
888 0.000812625
891 0.000796251
894 0.000677002
897 0.000410785
900 0.000684609
903 0.000531818
906 0.000600884
909 0.000773081
912 0.000681459
915 0.000690927
918 0.000884428
921 0.00113418
924 0.00145642
927 0.00188793
930 0.00245536
933 0.00382827
936 0.00657642
939 0.0158469
942 0.0640838
945 0.180529
948 0.338759
951 0.163072
954 0.0304384
957 0.00991995
960 0.00540239
963 0.00327345
966 0.00244512
969 0.00188052
972 0.00178596
975 0.00178576
978 0.00185514
981 0.00195644
984 0.00179628
987 0.00174363
990 0.00193276
993 0.00272007
996 0.00550413
999 0.0145285
1002 0.051507
1005 0.0975165
1008 0.0575946
1011 0.0171196
1014 0.00485591
1017 0.00237358
1020 0.00179144
1023 0.00153018
1026 0.00136739
1029 0.00160048
1032 0.0018667
1035 0.0021237
1038 0.00250445
1041 0.00346772
1044 0.00527237
1047 0.00880249
1050 0.0188543
1053 0.0567197
1056 0.165738
1059 0.192379
1062 0.138009
1065 0.130914
1068 0.0339649
1071 0.0106803
1074 0.00588624
1077 0.00386499
1080 0.00301511
1083 0.00274838
1086 0.00260379
1089 0.00240475
1092 0.00275877
1095 0.00307851
1098 0.00441462
1101 0.00759012
1104 0.0191021
1107 0.0652768
1110 0.111559
1113 0.0857694
1116 0.0769901
1119 0.0219941
1122 0.00638844
1125 0.00358899
1128 0.00228066
1131 0.00159253
1134 0.00137634
1137 0.00142165
1140 0.00146467
1143 0.0018021
1146 0.00182378
1149 0.00292406
1152 0.00435938
1155 0.0122848
1158 0.0612828
1161 0.149801
1164 0.0738073
1167 0.0121154
1170 0.00443117
1173 0.00233589
1176 0.00164139
1179 0.00137775
1182 0.00132236
1185 0.00116921
1188 0.00134899
1191 0.00131809
1194 0.00193508
1197 0.00290666
1200 0.00594966
1203 0.0169003
1206 0.0314519
1209 0.0411202
1212 0.0333716
1215 0.0116018
1218 0.00412312
1221 0.00297791
1224 0.00270118
1227 0.00284113
1230 0.00310112
1233 0.00359088
1236 0.00465435
1239 0.0066393
1242 0.0109821
1245 0.0225398
1248 0.0730098
1251 0.194022
1254 0.310817
1257 0.268904
1260 0.0994518
1263 0.0240628
1266 0.0103951
1269 0.00598559
1272 0.00412278
1275 0.0030098
1278 0.00213634
1281 0.00167225
1284 0.00125498
1287 0.00112675
1290 0.000980752
1293 0.000824801
1296 0.000519022
1299 0.000657537
1302 0.000659531
1305 0.000735203
1308 0.000946803
1311 0.000573247
1314 0.000853018
1317 0.000698077
1320 0.00109675
1323 0.00127551
1326 0.00223304
1329 0.00329497
1332 0.00793365
1335 0.0210868
1338 0.0359299
1341 0.0251838
1344 0.0177325
1347 0.025164
1350 0.0175364
1353 0.00530557
1356 0.00267838
1359 0.00174168
1362 0.00151423
1365 0.00184017
1368 0.00269686
1371 0.00408183
1374 0.00870278
1377 0.0246896
1380 0.0501842
1383 0.0547178
1386 0.0363605
1389 0.0227504
1392 0.00934467
1395 0.00367384
1398 0.00277233
1401 0.0027814
1404 0.00340662
1407 0.0049852
1410 0.0082696
1413 0.0178555
1416 0.0504237
1419 0.0996979
1422 0.117699
1425 0.105951
1428 0.0818253
1431 0.0437897
1434 0.0125861
1437 0.00621451
1440 0.00389205
1443 0.00311773
1446 0.00284415
1449 0.00337243
1452 0.00523786
1455 0.0149217
1458 0.0283923
1461 0.0523971
1464 0.0634281
1467 0.0244656
1470 0.00701913
1473 0.00356841
1476 0.00293317
1479 0.00286476
1482 0.0034586
1485 0.00551059
1488 0.00947846
1491 0.0214188
1494 0.0529308
1497 0.0929767
1500 0.0956744
1503 0.0755086
1506 0.0786674
1509 0.027571
1512 0.0090038
1515 0.00504836
1518 0.00357559
1521 0.00303456
1524 0.00378822
1527 0.00566167
1530 0.0142161
1533 0.0296552
1536 0.0374252
1539 0.0293021
1542 0.0293643
1545 0.0146564
1548 0.00424284
1551 0.00258849
1554 0.00208101
1557 0.00195454
1560 0.00232042
1563 0.00427596
1566 0.0099724
1569 0.0335938
1572 0.0738079
1575 0.0981221
1578 0.0414942
1581 0.0098092
1584 0.0040264
1587 0.00240164
1590 0.00181796
1593 0.00110285
1596 0.00104707
1599 0.000938323
1602 0.000681763
1605 0.000695435
1608 0.000546758
1611 0.00102103
1614 0.000839457
1617 0.000904461
1620 0.00119762
1623 0.00155061
1626 0.00225415
1629 0.00338856
1632 0.00570591
1635 0.0131489
1638 0.037461
1641 0.0729011
1644 0.0847641
1647 0.0755287
1650 0.0476551
1653 0.0135561
1656 0.00561595
1659 0.00366001
1662 0.00326013
1665 0.00342718
1668 0.00565806
1671 0.0102265
1674 0.0139368
1677 0.0185179
1680 0.0184728
1683 0.0144226
1686 0.00814797
1689 0.00612337
1692 0.00541572
1695 0.00716652
1698 0.0115915
1701 0.0240616
1704 0.0601053
1707 0.0969282
1710 0.128583
1713 0.127977
1716 0.100017
1719 0.0579686
1722 0.0289364
1725 0.0116313
1728 0.00749589
1731 0.0070144
1734 0.00891471
1737 0.0170281
1740 0.0290244
1743 0.0312432
1746 0.0253226
1749 0.0167198
1752 0.0180956
1755 0.00909531
1758 0.00298779
1761 0.00185516
1764 0.00138903
1767 0.00105985
1770 0.000871029
1773 0.000998799
1776 0.000742925
1779 0.00045136
1782 0.000701114
1785 0.00100778
1788 0.00106137
1791 0.0017906
1794 0.00251243
1797 0.00502263
1800 0.0120229
1803 0.0241272
1806 0.0338567
1809 0.0366788
1812 0.027092
1815 0.0156639
1818 0.00816675
1821 0.00545722
1824 0.00665842
1827 0.0106651
1830 0.0239047
1833 0.0478255
1836 0.0648
1839 0.0531865
1842 0.0395533
1845 0.0494987
1848 0.0369686
1851 0.0116107
1854 0.00498858
1857 0.00320246
1860 0.00176422
1863 0.00158141
1866 0.000842583
1869 0.000628022
1872 0.000841484
1875 0.000658305
1878 0.000828267
1881 0.000916109
1884 0.00121606
1887 0.0021827
1890 0.00670516
1893 0.0101006
1896 0.0140397
1899 0.0238157
1902 0.0305855
1905 0.0177295
1908 0.00645072
1911 0.00365694
1914 0.00275584
1917 0.00320672
1920 0.0062655
1923 0.0115302
1926 0.0148096
1929 0.0183068
1932 0.0178277
1935 0.0132042
1938 0.00781865
1941 0.0045777
1944 0.00494936
1947 0.00840335
1950 0.0174749
1953 0.0325734
1956 0.0563457
1959 0.0682552
1962 0.0543152
1965 0.0330889
1968 0.0145838
1971 0.00756351
1974 0.00673693
1977 0.0105085
1980 0.0175758
1983 0.0242438
1986 0.0305709
1989 0.0261328
1992 0.0263323
1995 0.0195013
1998 0.0086176
2001 0.00639429
2004 0.00805741
2007 0.0156599
2010 0.0275694
2013 0.0378177
2016 0.0568733
2019 0.0483938
2022 0.0221683
2025 0.0127056
2028 0.00889302
2031 0.00577258
2034 0.00616189
2037 0.00797324
2040 0.00808621
2043 0.0061833
2046 0.00523096
2049 0.00540666
2052 0.00761013
2055 0.00936832
2058 0.0101701
2061 0.0187563
2064 0.0383785
2067 0.0556533
2070 0.0612873
2073 0.0541225
2076 0.0495411
2079 0.0365564
2082 0.0221029
2085 0.00966303
2088 0.00491722
2091 0.00337343
2094 0.00266036
2097 0.00259899
2100 0.00229057
2103 0.0026233
2106 0.00263011
2109 0.00335606
2112 0.00503384
2115 0.0101099
2118 0.0183768
2121 0.0245763
2124 0.022008
2127 0.0157348
2130 0.0139065
2133 0.0195849
2136 0.0205274
2139 0.0111641
2142 0.0108542
2145 0.0155611
2148 0.0208713
2151 0.0233054
2154 0.0217667
2157 0.016577
2160 0.013103
2163 0.0106912
2166 0.00932864
2169 0.0159449
2172 0.0191287
2175 0.0283259
2178 0.040886
2181 0.0420046
2184 0.0318715
2187 0.0133642
2190 0.00609025
2193 0.0046497
2196 0.00547753
2199 0.00943695
2202 0.0118111
2205 0.0136533
2208 0.0121169
2211 0.00811158
2214 0.00469357
2217 0.00495371
2220 0.00906654
2223 0.0163383
2226 0.0207641
2229 0.0189802
2232 0.0145062
2235 0.0141457
2238 0.0187062
2241 0.0128719
2244 0.00769187
2247 0.0093202
2250 0.0110527
2253 0.0141904
2256 0.0158445
2259 0.0143055
2262 0.0108514
2265 0.00809717
2268 0.00810961
2271 0.0129235
2274 0.0190991
2277 0.0258471
2280 0.024669
2283 0.0183956
2286 0.019206
2289 0.0219413
2292 0.0103057
2295 0.00359819
2298 0.00154241
2301 0.000978968
2304 0.000550447
2307 0.000445869
2310 0.000884802
2313 0.000577263
2316 0.000603983
2319 0.000621876
2322 0.00170277
2325 0.00452929
2328 0.00872408
2331 0.0107257
2334 0.00834779
2337 0.00304926
2340 0.00221397
2343 0.00382454
2346 0.00611065
2349 0.00839401
2352 0.00931562
2355 0.00804603
2358 0.00754579
2361 0.00965955
2364 0.00991743
2367 0.012882
2370 0.0208792
2373 0.0320568
2376 0.0404535
2379 0.0500503
2382 0.0453889
2385 0.0260611
2388 0.0165899
2391 0.0167085
2394 0.0144295
2397 0.0125175
2400 0.0128104
2403 0.0134655
2406 0.0126665
2409 0.00926454
2412 0.00893885
2415 0.0115051
2418 0.0101841
2421 0.0117253
2424 0.0165524
2427 0.0164538
2430 0.0148435
2433 0.0150472
2436 0.0106591
2439 0.00855292
2442 0.00875769
2445 0.0100027
2448 0.0109033
2451 0.0100264
2454 0.0102303
2457 0.0116268
2460 0.0142686
2463 0.0223736
2466 0.0304524
2469 0.0349789
2472 0.0372133
2475 0.0333365
2478 0.0278669
2481 0.0229459
2484 0.0190189
2487 0.00987426
2490 0.00464823
2493 0.00331447
2496 0.00296187
2499 0.00270693
2502 0.0029101
2505 0.00468336
2508 0.00926217
2511 0.0141553
2514 0.0198179
2517 0.028215
2520 0.0277184
2523 0.0264278
2526 0.0212624
2529 0.0106283
2532 0.00622078
2535 0.00661987
2538 0.00722042
2541 0.00714277
2544 0.00641408
2547 0.0048862
2550 0.00501872
2553 0.00663166
2556 0.00743676
2559 0.00875599
2562 0.0075765
2565 0.00592793
2568 0.00568882
2571 0.00765874
2574 0.0110081
2577 0.0115659
2580 0.012291
2583 0.0139011
2586 0.0138274
2589 0.0110482
2592 0.00824205
2595 0.00776431
2598 0.0053399
2601 0.00180652
2604 0.00133051
2607 0.00115067
2610 0.000780582
2613 0.00115199
2616 0.00224824
2619 0.00340678
2622 0.0052919
2625 0.00622181
2628 0.00828528
2631 0.00972924
2634 0.0100839
2637 0.0109214
2640 0.0135432
2643 0.0175099
2646 0.0222913
2649 0.0282071
2652 0.0273835
2655 0.0255116
2658 0.0219826
2661 0.0163567
2664 0.00804135
2667 0.00360169
2670 0.00171141
2673 0.00076954
2676 0.000707283
2679 0.000619919
2682 0.00136445
2685 0.00166414
2688 0.00200259
2691 0.00127675
2694 0.00142711
2697 0.00170042
2700 0.00266975
2703 0.00482425
2706 0.00659251
2709 0.00766764
2712 0.00829197
2715 0.0089617
2718 0.010123
2721 0.0106284
2724 0.0133004
2727 0.0159655
2730 0.0204209
2733 0.0246498
2736 0.0249261
2739 0.0220456
2742 0.018063
2745 0.0156031
2748 0.0134539
2751 0.0107125
2754 0.00704451
2757 0.00573148
2760 0.00535101
2763 0.00645598
2766 0.00810371
2769 0.0113646
2772 0.0141266
2775 0.0147051
2778 0.0162899
2781 0.0162417
2784 0.0130717
2787 0.0114117
2790 0.0134862
2793 0.0124101
2796 0.00814744
2799 0.00606583
2802 0.00496866
2805 0.00654418
2808 0.00799525
2811 0.00962914
2814 0.00990879
2817 0.0137454
2820 0.0164366
2823 0.014246
2826 0.0083523
2829 0.00296362
2832 0.00163036
2835 0.000357024
2838 0.000717735
2841 0.00125386
2844 0.0021035
2847 0.00387689
2850 0.00679584
2853 0.00770941
2856 0.00841515
2859 0.00768782
2862 0.00844715
2865 0.00818599
2868 0.00846847
2871 0.00899882
2874 0.00719298
2877 0.00667835
2880 0.00631373
2883 0.00780091
2886 0.0102237
2889 0.014295
2892 0.0197588
2895 0.022043
2898 0.0222959
2901 0.0198731
2904 0.0189765
2907 0.0196226
2910 0.017682
2913 0.0138811
2916 0.0104678
2919 0.00900335
2922 0.00878308
2925 0.00751963
2928 0.00708492
2931 0.00585599
2934 0.00525267
2937 0.00680533
2940 0.00994371
2943 0.00978845
2946 0.00686713
2949 0.00706399
2952 0.00631788
2955 0.00654648
2958 0.00668355
2961 0.00581491
2964 0.00666164
2967 0.006144
2970 0.00625894
2973 0.00813754
2976 0.00905409
2979 0.00894906
2982 0.00792245
2985 0.00610022
2988 0.00413051
2991 0.00170537
2994 0.000737965
2997 0.000394654
3000 0.000329282
3003 0.00192854
3006 0.00192716
3009 0.00323156
3012 0.00527941
3015 0.00529701
3018 0.00439425
3021 0.00445558
3024 0.00702199
3027 0.00921197
3030 0.00713562
3033 0.0072556
3036 0.00707233
3039 0.00555513
3042 0.00785056
3045 0.00827939
3048 0.00801432
3051 0.00625423
3054 0.00604969
3057 0.00526588
3060 0.0060421
3063 0.00899686
3066 0.00918695
3069 0.00991134
3072 0.00935773
3075 0.00688709
3078 0.00789407
3081 0.00976702
3084 0.00884936
3087 0.0104592
3090 0.00967929
3093 0.00891352
3096 0.00703857
3099 0.00897854
3102 0.00981232
3105 0.00832099
3108 0.00594644
3111 0.00565495
3114 0.00676474
3117 0.00970007
3120 0.0112972
3123 0.0125928
3126 0.0152149
3129 0.0142085
3132 0.0158225
3135 0.0114005
3138 0.00635268
3141 0.00665923
3144 0.00581131
3147 0.00359035
3150 0.00151684
3153 0.00191654
3156 0.00214886
3159 0.00364016
3162 0.00345303
3165 0.00734915
3168 0.0081099
3171 0.0093803
3174 0.0064863
3177 0.00679196
3180 0.00681057
3183 0.00725029
3186 0.0089086
3189 0.0101408
3192 0.0118878
3195 0.0139076
3198 0.014621
3201 0.0154345
3204 0.014069
3207 0.014555
3210 0.0130309
3213 0.0107576
3216 0.0061014
3219 0.00400341
3222 0.00260477
3225 0.00168206
3228 0.00182222
3231 0.00238992
3234 0.0027182
3237 0.000964616
3240 0.0020584
3243 0.00114764
3246 0.00086803
3249 0.00315445
3252 0.00221532
3255 0.00308647
3258 0.00410437
3261 0.00702789
3264 0.00737237
3267 0.00833123
3270 0.00956285
3273 0.0112443
3276 0.00893354
3279 0.00669012
3282 0.00494253
3285 0.00471299
3288 0.00491331
3291 0.00280088
3294 0.00179224
3297 0.00231097
3300 0.00393774
3303 0.00383325
3306 0.00368247
3309 0.00333063
3312 0.0048448
3315 0.0038269
3318 0.00474014
3321 0.00531434
3324 0.00602778
3327 0.00737017
3330 0.0072757
3333 0.0073795
3336 0.00921889
3339 0.00898832
3342 0.010764
3345 0.00855072
3348 0.00825101
3351 0.00968454
3354 0.00935424
3357 0.0105928
3360 0.00598198
3363 0.00635238
3366 0.00787167
3369 0.00590217
3372 0.00596695
3375 0.00691584
3378 0.00681904
3381 0.00598083
3384 0.0079846
3387 0.00639489
3390 0.00849714
3393 0.00767648
3396 0.00645095
3399 0.00565451
3402 0.00989864
3405 0.00695393
3408 0.00634807
3411 0.00702693
3414 0.00586718
3417 0.00161283
3420 0.00526129
3423 0.00234096
3426 0.00160823
3429 0.00463012
3432 0.00159337
3435 0.00614484
3438 0.00562948
3441 0.0059119
3444 0.00599094
3447 0.00817184
3450 0.00904751
3453 0.00896142
3456 0.00880811
3459 0.0092436
3462 0.00926129
3465 0.00276345
3468 0.00338402
3471 0.00707158
3474 0.00628007
3477 0.010313
3480 0.00476457
3483 0.00782906
3486 0.00287785
3487 0.00688902