File: constrainednmf/example_data/BaTiO3_xrd_ramp/BTO_220K_tth.xy
0.000000000000000000e+00 0.000274088
3 0.000407781
6 0.000649963
9 0.0024044
12 0.00989138
15 0.0119174
18 0.0114076
21 0.0108338
24 0.01122
27 0.011193
30 0.00926303
33 0.00396754
36 0.00294525
39 0.00300092
42 0.00312545
45 0.00314698
48 0.00311374
51 0.00313084
54 0.00317971
57 0.00319939
60 0.0033061
63 0.00330593
66 0.00329808
69 0.00336532
72 0.00340454
75 0.00344354
78 0.00353724
81 0.00367455
84 0.00374206
87 0.00375886
90 0.00369382
93 0.0036313
96 0.00360869
99 0.0035275
102 0.00347266
105 0.00347862
108 0.00346144
111 0.0034932
114 0.0034547
117 0.00338847
120 0.00335923
123 0.00325999
126 0.00318275
129 0.00333769
132 0.00324973
135 0.00316771
138 0.00316601
141 0.00309991
144 0.00314779
147 0.00305072
150 0.00302763
153 0.00296021
156 0.00297124
159 0.00297726
162 0.00287724
165 0.00284691
168 0.00282197
171 0.00273917
174 0.0027302
177 0.00265208
180 0.00263426
183 0.00252297
186 0.00250548
189 0.0024987
192 0.00243392
195 0.00246447
198 0.00239265
201 0.00235369
204 0.00223257
207 0.00228345
210 0.00233468
213 0.00219683
216 0.00222147
219 0.00224416
222 0.00216939
225 0.00215231
228 0.00219081
231 0.00221422
234 0.00216632
237 0.00210922
240 0.00214402
243 0.00215303
246 0.00217323
249 0.00218412
252 0.0021463
255 0.00210951
258 0.0021837
261 0.00213235
264 0.00221531
267 0.00220368
270 0.00222263
273 0.00233413
276 0.00235874
279 0.00241017
282 0.00246347
285 0.00264072
288 0.00260917
291 0.00266297
294 0.00261822
297 0.0025183
300 0.00234719
303 0.0021554
306 0.00209064
309 0.00202766
312 0.00216554
315 0.00212464
318 0.00225684
321 0.00237436
324 0.00290987
327 0.00553678
330 0.0264819
333 0.108997
336 0.0659201
339 0.0102118
342 0.00352116
345 0.00209835
348 0.00169063
351 0.00149275
354 0.00156934
357 0.0022357
360 0.00435434
363 0.00365219
366 0.00227406
369 0.00123428
372 0.000991379
375 0.000864609
378 0.000814737
381 0.000781058
384 0.000811673
387 0.00108616
390 0.000928073
393 0.000887538
396 0.000938985
399 0.000969765
402 0.00087297
405 0.000931598
408 0.00099651
411 0.00120623
414 0.0014195
417 0.00150973
420 0.0013317
423 0.00150373
426 0.00159455
429 0.00132862
432 0.0014037
435 0.00145411
438 0.00160242
441 0.00180803
444 0.00217329
447 0.00257127
450 0.00313585
453 0.00366834
456 0.00468357
459 0.00630574
462 0.00937746
465 0.0189792
468 0.0765218
471 0.546808
474 0.872442
477 0.135154
480 0.0241485
483 0.0101852
486 0.00631413
489 0.00461903
492 0.00337313
495 0.00255487
498 0.00203034
501 0.0018516
504 0.00174434
507 0.00208018
510 0.00252914
513 0.00238355
516 0.00188598
519 0.00108878
522 0.000670474
525 0.000576444
528 0.000417939
531 0.00039885
534 0.000283879
537 0.000284125
540 0.000482769
543 0.000300673
546 0.000350236
549 0.000475609
552 0.000406114
555 0.000760041
558 0.000799954
561 0.00112771
564 0.00155082
567 0.00238757
570 0.00349049
573 0.00903813
576 0.0536438
579 0.33927
582 0.147407
585 0.0161966
588 0.00507512
591 0.0029096
594 0.00219149
597 0.0013826
600 0.00100929
603 0.000760817
606 0.000670754
609 0.000576961
612 0.000610359
615 0.000690253
618 0.000729352
621 0.00108957
624 0.00186842
627 0.00192791
630 0.00162024
633 0.00155521
636 0.00167717
639 0.00155418
642 0.00165224
645 0.00177916
648 0.00222823
651 0.003114
654 0.0047379
657 0.00772741
660 0.0148893
663 0.0424298
666 0.19163
669 0.305566
672 0.22315
675 0.0975847
678 0.0190635
681 0.00769894
684 0.0044803
687 0.00327052
690 0.00299066
693 0.00306917
696 0.00231523
699 0.00148594
702 0.00103863
705 0.000864938
708 0.000811794
711 0.000792696
714 0.000697269
717 0.000593246
720 0.000841503
723 0.000927265
726 0.00081699
729 0.000985562
732 0.00133677
735 0.00191389
738 0.00333919
741 0.0075754
744 0.0322028
747 0.105667
750 0.102645
753 0.0476536
756 0.00852267
759 0.00274136
762 0.00160584
765 0.00131346
768 0.000794743
771 0.000916833
774 0.00105925
777 0.000730802
780 0.00108999
783 0.00111538
786 0.00130918
789 0.00142865
792 0.00176617
795 0.0022038
798 0.00272258
801 0.00365923
804 0.00486815
807 0.00734191
810 0.0125178
813 0.0309178
816 0.137158
819 0.482455
822 0.475435
825 0.131028
828 0.025464
831 0.0100389
834 0.00606695
837 0.00419945
840 0.00303626
843 0.00216385
846 0.00180554
849 0.00138687
852 0.00103087
855 0.00101751
858 0.000784565
861 0.000992623
864 0.000733156
867 0.00065686
870 0.000638642
873 0.000436089
876 0.000263073
879 0.00030336
882 0.0006914
885 0.000739813
888 0.000672423
891 0.000638073
894 0.000305806
897 0.000389408
900 0.000191725
903 0.000366934
906 0.000528518
909 0.00056854
912 0.000416324
915 0.000571944
918 0.00067283
921 0.000954776
924 0.00112426
927 0.00163092
930 0.00214106
933 0.00364949
936 0.00640812
939 0.0154721
942 0.0633743
945 0.176604
948 0.33908
951 0.168724
954 0.031072
957 0.010175
960 0.00500813
963 0.00323107
966 0.00201852
969 0.00166566
972 0.00151826
975 0.00135965
978 0.0018378
981 0.00172375
984 0.00150287
987 0.00135126
990 0.00160202
993 0.00236234
996 0.00464249
999 0.0142236
1002 0.0512777
1005 0.0970148
1008 0.0589401
1011 0.0171677
1014 0.00504792
1017 0.00238188
1020 0.00162274
1023 0.00133104
1026 0.00128469
1029 0.00105018
1032 0.00133275
1035 0.00186333
1038 0.00223545
1041 0.00309896
1044 0.00490885
1047 0.00852434
1050 0.0180335
1053 0.0545767
1056 0.164865
1059 0.197196
1062 0.136156
1065 0.13226
1068 0.0355893
1071 0.0107236
1074 0.00553565
1077 0.00375335
1080 0.00284177
1083 0.0021868
1086 0.00220652
1089 0.00241533
1092 0.00225077
1095 0.00285766
1098 0.00407278
1101 0.00722194
1104 0.0181517
1107 0.0642349
1110 0.113187
1113 0.0854398
1116 0.0767258
1119 0.0231583
1122 0.00620961
1125 0.00275619
1128 0.00175485
1131 0.00116299
1134 0.000935523
1137 0.00097487
1140 0.00110349
1143 0.00120103
1146 0.00153358
1149 0.00219971
1152 0.00413765
1155 0.0119158
1158 0.0595431
1161 0.148105
1164 0.0775399
1167 0.0126177
1170 0.00380064
1173 0.00188346
1176 0.00133481
1179 0.000870324
1182 0.000968134
1185 0.000934785
1188 0.00109597
1191 0.00114901
1194 0.0013827
1197 0.00271471
1200 0.0054714
1203 0.0162495
1206 0.0307064
1209 0.0413297
1212 0.0335288
1215 0.0116843
1218 0.00421853
1221 0.00236653
1224 0.00211311
1227 0.00226771
1230 0.00271752
1233 0.00326122
1236 0.00426236
1239 0.00630435
1242 0.0103962
1245 0.0221273
1248 0.0714218
1251 0.191105
1254 0.312635
1257 0.271102
1260 0.104311
1263 0.0250108
1266 0.0101391
1269 0.00595445
1272 0.00380529
1275 0.00259879
1278 0.00153625
1281 0.00148727
1284 0.000933985
1287 0.000664394
1290 0.000654739
1293 0.00015828
1296 0.000445407
1299 0.000379688
1302 0.000383722
1305 0.000373843
1308 0.000507112
1311 0.000458136
1314 0.000674056
1317 0.000476541
1320 0.000635065
1323 0.00128707
1326 0.00174627
1329 0.00349351
1332 0.00747537
1335 0.020449
1338 0.0366671
1341 0.0257589
1344 0.017484
1347 0.0231417
1350 0.0184993
1353 0.00515565
1356 0.00244931
1359 0.00154809
1362 0.0014417
1365 0.00169744
1368 0.00236162
1371 0.00359285
1374 0.00832367
1377 0.0242446
1380 0.050537
1383 0.0551933
1386 0.0366996
1389 0.0222894
1392 0.00989404
1395 0.00394604
1398 0.00259962
1401 0.00258472
1404 0.00316093
1407 0.00479973
1410 0.00793099
1413 0.0173459
1416 0.0495251
1419 0.0998068
1422 0.119034
1425 0.107738
1428 0.0801442
1431 0.0464459
1434 0.0131447
1437 0.00614694
1440 0.00394476
1443 0.00313963
1446 0.00290624
1449 0.0030332
1452 0.00518629
1455 0.0145525
1458 0.0275557
1461 0.0512912
1464 0.0646662
1467 0.0252297
1470 0.00700053
1473 0.00356362
1476 0.00283412
1479 0.00287991
1482 0.00363999
1485 0.00502731
1488 0.00899084
1491 0.0206928
1494 0.0525049
1497 0.0932393
1500 0.098629
1503 0.0746576
1506 0.0790694
1509 0.0298381
1512 0.00948757
1515 0.0051493
1518 0.00370736
1521 0.00308054
1524 0.00360344
1527 0.0056864
1530 0.0146577
1533 0.0296336
1536 0.0387336
1539 0.0299895
1542 0.0291278
1545 0.015248
1548 0.0045913
1551 0.00257948
1554 0.00184976
1557 0.00210234
1560 0.00222694
1563 0.00383263
1566 0.0101712
1569 0.0334455
1572 0.0720402
1575 0.0994837
1578 0.0441266
1581 0.0103957
1584 0.00402884
1587 0.00250997
1590 0.00174312
1593 0.00147708
1596 0.000620101
1599 0.00114003
1602 0.000773875
1605 0.00118353
1608 0.000768479
1611 0.000688193
1614 0.000972193
1617 0.000854247
1620 0.0011905
1623 0.00159931
1626 0.00224982
1629 0.00306889
1632 0.00562058
1635 0.0125116
1638 0.0368454
1641 0.0724778
1644 0.0864427
1647 0.075091
1650 0.0495989
1653 0.0143274
1656 0.0059454
1659 0.00393577
1662 0.00348373
1665 0.00335791
1668 0.00558546
1671 0.01022
1674 0.0135097
1677 0.0185193
1680 0.0185564
1683 0.0147614
1686 0.00833163
1689 0.00592855
1692 0.00533497
1695 0.00696647
1698 0.0109975
1701 0.0233505
1704 0.0594637
1707 0.096816
1710 0.130046
1713 0.130074
1716 0.101494
1719 0.0580661
1722 0.0310065
1725 0.0120935
1728 0.00739077
1731 0.0066577
1734 0.00899147
1737 0.0170172
1740 0.0294637
1743 0.0320624
1746 0.0262407
1749 0.0165578
1752 0.0177109
1755 0.00980352
1758 0.00322813
1761 0.00175529
1764 0.000846251
1767 0.000609943
1770 0.000522035
1773 0.000353124
1776 0.000705414
1779 0.000461064
1782 0.000624774
1785 0.0006072
1788 0.000978754
1791 0.00145361
1794 0.00241912
1797 0.00452408
1800 0.0113377
1803 0.0234285
1806 0.0338289
1809 0.0369452
1812 0.0271849
1815 0.0156632
1818 0.00868566
1821 0.00542298
1824 0.00645143
1827 0.0105998
1830 0.0230366
1833 0.0478477
1836 0.0659399
1839 0.0549074
1842 0.0394
1845 0.0472211
1848 0.0389052
1851 0.0122476
1854 0.00502352
1857 0.00275205
1860 0.00172081
1863 0.00150444
1866 0.00101625
1869 0.000896226
1872 0.000156391
1875 0.000574189
1878 0.000419596
1881 0.000459492
1884 0.00142459
1887 0.00239481
1890 0.00581615
1893 0.0095816
1896 0.0136743
1899 0.0231377
1902 0.030593
1905 0.0184841
1908 0.00631385
1911 0.00325218
1914 0.00244359
1917 0.00285057
1920 0.00580957
1923 0.0107438
1926 0.0146111
1929 0.017992
1932 0.01792
1935 0.0135191
1938 0.00759694
1941 0.0043822
1944 0.00481928
1947 0.00825208
1950 0.016735
1953 0.03173
1956 0.0560924
1959 0.0687434
1962 0.0552857
1965 0.0333741
1968 0.0146862
1971 0.00751811
1974 0.00649103
1977 0.00994758
1980 0.0170331
1983 0.0235535
1986 0.031161
1989 0.0265865
1992 0.0252133
1995 0.0196604
1998 0.00852224
2001 0.00594906
2004 0.00730024
2007 0.01545
2010 0.0271597
2013 0.0370127
2016 0.0564745
2019 0.0501297
2022 0.0230884
2025 0.0117839
2028 0.00869223
2031 0.00540457
2034 0.00567959
2037 0.00766915
2040 0.00817139
2043 0.00612596
2046 0.00512681
2049 0.00510368
2052 0.00666587
2055 0.00879304
2058 0.00984385
2061 0.017632
2064 0.0377785
2067 0.0561875
2070 0.0627973
2073 0.0549518
2076 0.0490165
2079 0.0368925
2082 0.0228378
2085 0.0102062
2088 0.00486707
2091 0.0030083
2094 0.00216934
2097 0.00213895
2100 0.00192078
2103 0.00201243
2106 0.00236206
2109 0.00306653
2112 0.00506916
2115 0.00948882
2118 0.0181192
2121 0.0253314
2124 0.0223426
2127 0.0155683
2130 0.0136056
2133 0.0184005
2136 0.0205932
2139 0.0112895
2142 0.0108122
2145 0.0153535
2148 0.0206119
2151 0.0232125
2154 0.0217819
2157 0.0162766
2160 0.0128235
2163 0.010475
2166 0.00934036
2169 0.0154258
2172 0.0185601
2175 0.0274275
2178 0.0403055
2181 0.0426686
2184 0.0327157
2187 0.0142189
2190 0.00622958
2193 0.0042215
2196 0.00534328
2199 0.00903266
2202 0.0112397
2205 0.0136167
2208 0.011798
2211 0.00794475
2214 0.00455457
2217 0.00445193
2220 0.00791996
2223 0.0159447
2226 0.0211903
2229 0.0200662
2232 0.0146897
2235 0.0135533
2238 0.0181524
2241 0.0137483
2244 0.00778084
2247 0.00899905
2250 0.0106703
2253 0.0143773
2256 0.0161612
2259 0.0145039
2262 0.0106604
2265 0.00784504
2268 0.00812074
2271 0.0131126
2274 0.0190492
2277 0.0263398
2280 0.025781
2283 0.0183472
2286 0.0185434
2289 0.0218349
2292 0.0111141
2295 0.00379904
2298 0.00174594
2301 0.000895369
2304 0.000640078
2307 0.000247325
2310 0.000374074
2313 0.000226584
2316 0.000512762
2319 0.000879578
2322 0.0014645
2325 0.00436369
2328 0.0082079
2331 0.0108292
2334 0.00909774
2337 0.0035257
2340 0.00256946
2343 0.00388371
2346 0.00638689
2349 0.00834141
2352 0.00936126
2355 0.00825188
2358 0.00739159
2361 0.00928938
2364 0.010207
2367 0.0126921
2370 0.0213108
2373 0.0327069
2376 0.0401164
2379 0.0506324
2382 0.0468113
2385 0.0272833
2388 0.0163119
2391 0.0166993
2394 0.0151303
2397 0.0130375
2400 0.0130563
2403 0.0134875
2406 0.0133937
2409 0.00986111
2412 0.00871468
2415 0.010898
2418 0.0102972
2421 0.0119796
2424 0.0169897
2427 0.0166703
2430 0.015047
2433 0.0157744
2436 0.011307
2439 0.00923142
2442 0.00917978
2445 0.010214
2448 0.0111714
2451 0.010309
2454 0.0100099
2457 0.0118114
2460 0.0143344
2463 0.022758
2466 0.0314361
2469 0.0360312
2472 0.0377245
2475 0.0345697
2478 0.0290044
2481 0.0226592
2484 0.0195045
2487 0.011504
2490 0.00495232
2493 0.00342873
2496 0.00311112
2499 0.00262916
2502 0.00336385
2505 0.00469756
2508 0.00884259
2511 0.0143059
2514 0.0200352
2517 0.0285172
2520 0.0284367
2523 0.0266565
2526 0.022175
2529 0.0117262
2532 0.00721743
2535 0.00700125
2538 0.00778131
2541 0.00716573
2544 0.00707108
2547 0.00500977
2550 0.00532885
2553 0.0063517
2556 0.0075734
2559 0.00876195
2562 0.00810506
2565 0.00601196
2568 0.00527222
2571 0.00786821
2574 0.0110306
2577 0.0123849
2580 0.012647
2583 0.014481
2586 0.014417
2589 0.0116599
2592 0.00855856
2595 0.00815178
2598 0.00574781
2601 0.00259443
2604 0.00140607
2607 0.000498377
2610 0.000405084
2613 0.0011189
2616 0.00210135
2619 0.00363028
2622 0.00559851
2625 0.00722072
2628 0.00827953
2631 0.0100896
2634 0.0101628
2637 0.0110429
2640 0.0140322
2643 0.0169981
2646 0.0224273
2649 0.0279713
2652 0.0278337
2655 0.025745
2658 0.0220943
2661 0.0166417
2664 0.00864523
2667 0.00357601
2670 0.00204531
2673 0.00118611
2676 0.00094536
2679 0.000933308
2682 0.00143977
2685 0.00181226
2688 0.00168797
2691 0.00128772
2694 0.00147262
2697 0.00188825
2700 0.00226413
2703 0.00444676
2706 0.00685496
2709 0.00788336
2712 0.0088496
2715 0.00935487
2718 0.00988891
2721 0.0102515
2724 0.0127535
2727 0.0152793
2730 0.0206337
2733 0.0249175
2736 0.0251382
2739 0.0228945
2742 0.0178694
2745 0.0148827
2748 0.0138734
2751 0.0105525
2754 0.00763231
2757 0.00575978
2760 0.00519371
2763 0.00566839
2766 0.00822806
2769 0.0109857
2772 0.0143079
2775 0.0142021
2778 0.0163639
2781 0.0165021
2784 0.0130463
2787 0.0107405
2790 0.0124181
2793 0.0120802
2796 0.00825712
2799 0.00677796
2802 0.0051982
2805 0.00571208
2808 0.0081946
2811 0.00944042
2814 0.0103027
2817 0.0132361
2820 0.0158401
2823 0.0138283
2826 0.00870484
2829 0.00338142
2832 0.00021917
2835 0.00113187
2838 4.82713e-05
2841 0.00128643
2844 0.00162187
2847 0.00439029
2850 0.00528524
2853 0.0079018
2856 0.00794511
2859 0.00800151
2862 0.00850614
2865 0.0082988
2868 0.00741652
2871 0.00861213
2874 0.00756746
2877 0.00564978
2880 0.00565821
2883 0.00706825
2886 0.0101946
2889 0.0137844
2892 0.0188365
2895 0.0225929
2898 0.0232371
2901 0.0199339
2904 0.0189273
2907 0.020105
2910 0.017746
2913 0.0142236
2916 0.0111451
2919 0.00897692
2922 0.00917841
2925 0.00866118
2928 0.00734503
2931 0.00405129
2934 0.0052284
2937 0.00741644
2940 0.00876221
2943 0.00917002
2946 0.0077423
2949 0.0057267
2952 0.00686927
2955 0.00631971
2958 0.00606501
2961 0.00575208
2964 0.00633672
2967 0.0056518
2970 0.00654867
2973 0.00748125
2976 0.00931784
2979 0.0085191
2982 0.00782584
2985 0.00757503
2988 0.00345037
2991 0.00129761
2994 0.000721066
2997 0.000316803
3000 0.0010166
3003 0.00140285
3006 0.00267455
3009 0.00317673
3012 0.00548237
3015 0.00455896
3018 0.0038069
3021 0.00399648
3024 0.0061087
3027 0.00774732
3030 0.00834237
3033 0.00729854
3036 0.00722172
3039 0.00685081
3042 0.00844051
3045 0.008594
3048 0.00881717
3051 0.00678173
3054 0.00612882
3057 0.00520451
3060 0.00536096
3063 0.00870044
3066 0.0100403
3069 0.0101148
3072 0.0098061
3075 0.00823442
3078 0.00870869
3081 0.00853219
3084 0.00919088
3087 0.010806
3090 0.0103734
3093 0.00734022
3096 0.00754335
3099 0.00804233
3102 0.00996859
3105 0.00775444
3108 0.00553663
3111 0.00617141
3114 0.00714575
3117 0.00857741
3120 0.0118816
3123 0.0138184
3126 0.0149071
3129 0.0159639
3132 0.0163155
3135 0.0124973
3138 0.00774927
3141 0.00718618
3144 0.00543318
3147 0.00413755
3150 0.0018563
3153 0.00195474
3156 0.00259532
3159 0.00412154
3162 0.00538142
3165 0.00777005
3168 0.00904914
3171 0.0099526
3174 0.00665224
3177 0.00652631
3180 0.00746502
3183 0.00833298
3186 0.00755887
3189 0.0108547
3192 0.01244
3195 0.0154347
3198 0.0166129
3201 0.0153651
3204 0.014639
3207 0.0136096
3210 0.0130692
3213 0.0112154
3216 0.00832318
3219 0.00498362
3222 0.00352939
3225 0.0017543
3228 0.00256666
3231 0.0020728
3234 0.00255215
3237 0.00172857
3240 0.00183836
3243 0.00151487
3246 0.00146319
3249 0.000325439
3252 0.00388888
3255 0.00310623
3258 0.00389021
3261 0.00454931
3264 0.00748347
3267 0.00856759
3270 0.0109269
3273 0.00892712
3276 0.0085182
3279 0.00814518
3282 0.00568795
3285 0.00536159
3288 0.0039752
3291 0.00230759
3294 0.000000000000000000e+00
3297 0.00241401
3300 0.00155169
3303 0.00345885
3306 0.00360889
3309 0.00402409
3312 0.00224998
3315 0.00270253
3318 0.00455341
3321 0.00425137
3324 0.00288818
3327 0.00391743
3330 0.00575616
3333 0.00615633
3336 0.00748341
3339 0.00931934
3342 0.0113876
3345 0.0116957
3348 0.00991689
3351 0.00966222
3354 0.011794
3357 0.00828713
3360 0.00767468
3363 0.00739004
3366 0.00595281
3369 0.00551016
3372 0.00648498
3375 0.00473261
3378 0.00495002
3381 0.00655789
3384 0.0067802
3387 0.00726658
3390 0.00703579
3393 0.00691653
3396 0.00739498
3399 0.00751458
3402 0.00518059
3405 0.00489832
3408 0.00481252
3411 0.00779771
3414 0.00609947
3417 0.00332992
3420 0.00254082
3423 0.000238705
3426 0.00379969
3429 0.00328193
3432 0.0036207
3435 0.00942836
3438 0.0038196
3441 0.0106647
3444 0.00851103
3447 0.00894001
3450 0.00849595
3453 0.00761993
3456 0.00904026
3459 0.0130085
3462 0.00350841
3465 0.0110116
3468 0.00785509
3471 0.0107736
3474 0.00756454
3477 0.00430664
3480 0.00862269
3483 0.000263428
3486 0.0132038
3487 0.0110772