File: constrainednmf/example_data/BaTiO3_xrd_ramp/BTO_440K_tth.xy
0.000000000000000000e+00 0.000360707
3 0.000436931
6 0.000651054
9 0.00265964
12 0.0120333
15 0.0137375
18 0.013017
21 0.0122683
24 0.0126649
27 0.0125741
30 0.0101991
33 0.00413171
36 0.00288764
39 0.00287416
42 0.00298246
45 0.00301537
48 0.00299962
51 0.00291589
54 0.00293697
57 0.00292318
60 0.00300713
63 0.00304837
66 0.00303827
69 0.00301884
72 0.00311924
75 0.0031747
78 0.00325753
81 0.00336551
84 0.00341612
87 0.00347326
90 0.0034405
93 0.00336522
96 0.00329937
99 0.0032749
102 0.00322578
105 0.00320621
108 0.00321209
111 0.00315596
114 0.00314399
117 0.00314952
120 0.00309548
123 0.00312232
126 0.00310539
129 0.00306209
132 0.00301792
135 0.00298526
138 0.00297998
141 0.00295085
144 0.00287562
147 0.00287415
150 0.00286144
153 0.00277832
156 0.00272985
159 0.00273436
162 0.00272143
165 0.00269889
168 0.00261971
171 0.00260493
174 0.00262412
177 0.00262134
180 0.0025667
183 0.00244484
186 0.00238555
189 0.00239874
192 0.0023804
195 0.00235861
198 0.00236399
201 0.00234349
204 0.00228377
207 0.00228051
210 0.00227047
213 0.00233656
216 0.00222136
219 0.00232573
222 0.00221782
225 0.00220145
228 0.00228285
231 0.00233936
234 0.00225297
237 0.00222628
240 0.00220525
243 0.00212869
246 0.00236329
249 0.00238221
252 0.00238007
255 0.00239484
258 0.00237891
261 0.00239323
264 0.00241967
267 0.00243508
270 0.00248318
273 0.00257553
276 0.00258861
279 0.00267604
282 0.00280147
285 0.00288085
288 0.00283455
291 0.00267725
294 0.00262013
297 0.00251101
300 0.00234624
303 0.00219595
306 0.00209869
309 0.00213405
312 0.00212411
315 0.00212971
318 0.00226312
321 0.00229473
324 0.00303962
327 0.00608376
330 0.0283386
333 0.118146
336 0.0490619
339 0.00678896
342 0.00264677
345 0.0019069
348 0.00162324
351 0.00136357
354 0.00160236
357 0.0027949
360 0.00420768
363 0.00308886
366 0.0017065
369 0.00110606
372 0.000815374
375 0.000804822
378 0.000868935
381 0.000861024
384 0.00100263
387 0.000903594
390 0.000878541
393 0.000852596
396 0.000827079
399 0.000797884
402 0.000925867
405 0.000830189
408 0.000994881
411 0.00126987
414 0.00146193
417 0.00119109
420 0.00125131
423 0.00139833
426 0.00139627
429 0.0012934
432 0.0013217
435 0.00149298
438 0.00155881
441 0.00184067
444 0.00223008
447 0.00255841
450 0.00307584
453 0.0037902
456 0.00480321
459 0.00632291
462 0.0098789
465 0.0205772
468 0.0825383
471 0.678811
474 0.706464
477 0.0879621
480 0.0195557
483 0.00924216
486 0.00603324
489 0.00433846
492 0.00325579
495 0.002415
498 0.00184295
501 0.00166225
504 0.00182937
507 0.00230756
510 0.00228229
513 0.00196604
516 0.00153444
519 0.00101669
522 0.000468197
525 0.000555284
528 0.000404257
531 0.000359431
534 0.000460869
537 0.000196633
540 0.000313863
543 0.00035977
546 0.000372355
549 0.0004805
552 0.000530772
555 0.000629336
558 0.000947849
561 0.0011066
564 0.00161114
567 0.00230913
570 0.00406861
573 0.0109306
576 0.0713682
579 0.367513
582 0.0879532
585 0.0111276
588 0.00430414
591 0.00251975
594 0.00175597
597 0.00132871
600 0.00106154
603 0.000865081
606 0.000681837
609 0.000609003
612 0.000575284
615 0.000823204
618 0.000886126
621 0.00129096
624 0.00196878
627 0.00164385
630 0.00133194
633 0.0015264
636 0.00176406
639 0.00140084
642 0.00150484
645 0.00175968
648 0.0022778
651 0.00356216
654 0.00511402
657 0.00870643
660 0.0169978
663 0.0465034
666 0.160201
669 0.396291
672 0.192698
675 0.0339646
678 0.0114597
681 0.006109
684 0.00429436
687 0.0037281
690 0.00348104
693 0.00238767
696 0.00161123
699 0.00111293
702 0.000931224
705 0.000936964
708 0.000781666
711 0.000736453
714 0.00046347
717 0.000804106
720 0.000924064
723 0.00094905
726 0.000824888
729 0.000939394
732 0.00159082
735 0.00204679
738 0.00358358
741 0.00859928
744 0.0313696
747 0.114993
750 0.107115
753 0.0186734
756 0.00495343
759 0.00223988
762 0.00124791
765 0.00115279
768 0.000999795
771 0.00105973
774 0.00116185
777 0.00109621
780 0.00118524
783 0.00131979
786 0.00147763
789 0.00177443
792 0.00218965
795 0.00235873
798 0.00281702
801 0.00413211
804 0.00548002
807 0.00807394
810 0.0147424
813 0.0363199
816 0.150157
819 0.583089
822 0.347551
825 0.0542113
828 0.016421
831 0.00833649
834 0.00537861
837 0.00391446
840 0.00285728
843 0.00243733
846 0.00199901
849 0.00140651
852 0.00134423
855 0.000986104
858 0.0010239
861 0.00094311
864 0.000612396
867 0.000550374
870 0.000567114
873 0.000519076
876 0.000630004
879 0.000692958
882 0.00087398
885 0.000636206
888 0.000552473
891 0.000530232
894 0.000547799
897 0.000364495
900 0.00056404
903 0.00037298
906 0.000298103
909 0.000173762
912 0.000510059
915 0.000529885
918 0.000737678
921 0.000962053
924 0.00126342
927 0.00159528
930 0.00249516
933 0.00371555
936 0.0069184
939 0.0162315
942 0.0564264
945 0.264736
948 0.320513
951 0.0738732
954 0.0173056
957 0.00705451
960 0.0039217
963 0.00255545
966 0.00185357
969 0.00182557
972 0.00159905
975 0.00163815
978 0.00156228
981 0.0010103
984 0.00102557
987 0.00107419
990 0.00139022
993 0.00244651
996 0.00521718
999 0.0137538
1002 0.0572176
1005 0.110219
1008 0.0307168
1011 0.00670924
1014 0.00253606
1017 0.00152466
1020 0.00111528
1023 0.00108222
1026 0.000966883
1029 0.00116916
1032 0.00134951
1035 0.00188631
1038 0.00238284
1041 0.0036989
1044 0.00546699
1047 0.00975073
1050 0.0202828
1053 0.0535006
1056 0.125506
1059 0.272515
1062 0.156324
1065 0.0362881
1068 0.0130219
1071 0.00648907
1074 0.00428099
1077 0.00314909
1080 0.0023546
1083 0.00185843
1086 0.00150756
1089 0.00185605
1092 0.00195819
1095 0.00283627
1098 0.00414074
1101 0.00781815
1104 0.0192311
1107 0.053722
1110 0.128636
1113 0.112252
1116 0.0247066
1119 0.00750099
1122 0.00319298
1125 0.00204465
1128 0.00107998
1131 0.000927163
1134 0.000577542
1137 0.000669218
1140 0.00100738
1143 0.00106677
1146 0.00151874
1149 0.00227618
1152 0.00505539
1155 0.0153933
1158 0.0861067
1161 0.150082
1164 0.026447
1167 0.00590651
1170 0.00244397
1173 0.00154154
1176 0.000863718
1179 0.000628929
1182 0.00059158
1185 0.000947846
1188 0.000732469
1191 0.00103425
1194 0.00141228
1197 0.00256894
1200 0.0051193
1203 0.0137524
1206 0.0388925
1209 0.0484801
1212 0.0147808
1215 0.00438206
1218 0.00291609
1221 0.00216028
1224 0.00218478
1227 0.00264507
1230 0.00256494
1233 0.00351856
1236 0.00483307
1239 0.00729877
1242 0.0122917
1245 0.0239761
1248 0.0668127
1251 0.22255
1254 0.394151
1257 0.138261
1260 0.0321449
1263 0.0130107
1266 0.00711152
1269 0.00465929
1272 0.00324792
1275 0.00221907
1278 0.00189449
1281 0.00128482
1284 0.00110952
1287 0.000423565
1290 0.000678724
1293 0.00044019
1296 0.000495408
1299 0.000222492
1302 0.000531819
1305 0.00034944
1308 0.000318837
1311 0.00017011
1314 0.000519327
1317 0.000115771
1320 0.000609534
1323 0.00142443
1326 0.00174186
1329 0.00364621
1332 0.00771159
1335 0.0143292
1338 0.0235129
1341 0.0475467
1344 0.029542
1347 0.00835111
1350 0.00374806
1353 0.00198489
1356 0.00139496
1359 0.00099136
1362 0.00125669
1365 0.00156616
1368 0.00224237
1371 0.00409641
1374 0.0085942
1377 0.019401
1380 0.0516292
1383 0.0690923
1386 0.0220325
1389 0.0065811
1392 0.00327336
1395 0.00242757
1398 0.00241493
1401 0.00290074
1404 0.00367694
1407 0.00522035
1410 0.00887241
1413 0.0180982
1416 0.0406531
1419 0.0886311
1422 0.165839
1425 0.1064
1428 0.0294231
1431 0.0116741
1434 0.00609832
1437 0.0040547
1440 0.00323015
1443 0.00286481
1446 0.0027915
1449 0.00329899
1452 0.0049949
1455 0.0113501
1458 0.0390409
1461 0.071652
1464 0.0330076
1467 0.00887386
1470 0.00421831
1473 0.00302706
1476 0.0030073
1479 0.00328296
1482 0.0040505
1485 0.00587705
1488 0.0099977
1491 0.0197915
1494 0.0449223
1497 0.0873933
1500 0.148192
1503 0.0667265
1506 0.0199242
1509 0.0086576
1512 0.00519412
1515 0.00380211
1518 0.00320581
1521 0.00332127
1524 0.00378947
1527 0.00586529
1530 0.0121706
1533 0.0240886
1536 0.0485481
1539 0.0360837
1542 0.0101445
1545 0.00426797
1548 0.0026017
1551 0.00181347
1554 0.0018048
1557 0.0022003
1560 0.00285927
1563 0.00482011
1566 0.0111895
1569 0.0379294
1572 0.107363
1575 0.0558998
1578 0.012074
1581 0.00481744
1584 0.00298544
1587 0.00208396
1590 0.00173819
1593 0.00123764
1596 0.000987251
1599 0.00112367
1602 0.00117309
1605 0.00127779
1608 0.00149037
1611 0.00106049
1614 0.0011824
1617 0.0013013
1620 0.00166802
1623 0.00214406
1626 0.00297025
1629 0.00399266
1632 0.00690003
1635 0.0141687
1638 0.034757
1641 0.0794975
1644 0.118452
1647 0.0375036
1650 0.0114928
1653 0.00602698
1656 0.00420748
1659 0.00338101
1662 0.00318083
1665 0.00364983
1668 0.00500574
1671 0.00825512
1674 0.0160814
1677 0.024513
1680 0.0161093
1683 0.00729481
1686 0.00479382
1689 0.00467951
1692 0.00560923
1695 0.0082443
1698 0.0125755
1701 0.0222881
1704 0.0440889
1707 0.0937033
1710 0.173709
1713 0.126424
1716 0.0431933
1719 0.0173998
1722 0.0101883
1725 0.00735884
1728 0.00597923
1731 0.00602837
1734 0.00890353
1737 0.0127635
1740 0.0212283
1743 0.043605
1746 0.0299044
1749 0.0103123
1752 0.00457674
1755 0.00258642
1758 0.00191582
1761 0.00132398
1764 0.000929773
1767 0.000553629
1770 0.000814461
1773 0.000676529
1776 0.000741732
1779 0.000635735
1782 0.000771194
1785 0.00110365
1788 0.00137326
1791 0.00150334
1794 0.00260153
1797 0.00440212
1800 0.0091049
1803 0.0203765
1806 0.0437879
1809 0.0348004
1812 0.0112752
1815 0.00508435
1818 0.00437201
1821 0.00462949
1824 0.00611651
1827 0.0103951
1830 0.0196022
1833 0.031327
1836 0.0540009
1839 0.0865611
1842 0.0450953
1845 0.0146636
1848 0.00681854
1851 0.00375416
1854 0.00258114
1857 0.00169311
1860 0.00131599
1863 0.000931136
1866 0.000500774
1869 0.000473531
1872 0.000637822
1875 0.000806169
1878 0.000566011
1881 0.000107523
1884 0.00145364
1887 0.00184564
1890 0.00382445
1893 0.00955247
1896 0.0240686
1899 0.0280969
1902 0.0141258
1905 0.00513986
1908 0.00256607
1911 0.00175011
1914 0.0015687
1917 0.00244525
1920 0.0040546
1923 0.00851404
1926 0.0176469
1929 0.0219487
1932 0.0109219
1935 0.00418137
1938 0.00287152
1941 0.003036
1944 0.00446267
1947 0.00730508
1950 0.0143472
1953 0.0313912
1956 0.0709652
1959 0.0650787
1962 0.022136
1965 0.00876758
1968 0.00508336
1971 0.0045349
1974 0.00487837
1977 0.00741833
1980 0.0134186
1983 0.0230669
1986 0.0390763
1989 0.0265971
1992 0.0101283
1995 0.00507471
1998 0.00397189
2001 0.00489853
2004 0.00657072
2007 0.0110784
2010 0.0256066
2013 0.0570379
2016 0.0532338
2019 0.0208408
2022 0.00777766
2025 0.00477488
2028 0.00328536
2031 0.00350493
2034 0.00352415
2037 0.00398965
2040 0.00516598
2043 0.00877525
2046 0.00753396
2049 0.00436983
2052 0.0045549
2055 0.00546956
2058 0.00850019
2061 0.014751
2064 0.0256946
2067 0.0455491
2070 0.0817643
2073 0.0590985
2076 0.0212575
2079 0.00888616
2082 0.004881
2085 0.00360302
2088 0.00245884
2091 0.00197516
2094 0.001576
2097 0.00150273
2100 0.00166142
2103 0.00189817
2106 0.00235201
2109 0.00286627
2112 0.00495652
2115 0.00782242
2118 0.0108956
2121 0.0149358
2124 0.0289907
2127 0.029086
2130 0.013817
2133 0.0063474
2136 0.00448241
2139 0.00519993
2142 0.0067238
2145 0.010321
2148 0.0190986
2151 0.028503
2154 0.0180168
2157 0.00746719
2160 0.00441564
2163 0.00387067
2166 0.00517718
2169 0.00958123
2172 0.0206364
2175 0.0388951
2178 0.0412427
2181 0.0210423
2184 0.00850675
2187 0.00371242
2190 0.00303523
2193 0.00280225
2196 0.00392127
2199 0.0072126
2202 0.0140015
2205 0.0122388
2208 0.00436609
2211 0.00238187
2214 0.00264949
2217 0.00394476
2220 0.006731
2223 0.00972075
2226 0.0147725
2229 0.0274986
2232 0.0212381
2235 0.00839317
2238 0.00430767
2241 0.00341714
2244 0.00365185
2247 0.00556576
2250 0.00971943
2253 0.0171496
2256 0.0148483
2259 0.00674104
2262 0.00375732
2265 0.00354548
2268 0.00569163
2271 0.00911183
2274 0.0131345
2277 0.0223138
2280 0.0349756
2283 0.0212472
2286 0.0080756
2289 0.00363679
2292 0.001801
2295 0.00134369
2298 0.000795881
2301 0.000546866
2304 0.000211684
2307 0.000403637
2310 0.000307602
2313 0.000722629
2316 0.000351845
2319 0.000717227
2322 0.00199359
2325 0.00591795
2328 0.0120999
2331 0.006144
2334 0.00207459
2337 0.00113161
2340 0.00245314
2343 0.00305888
2346 0.003846
2349 0.00583929
2352 0.0101312
2355 0.0111694
2358 0.00632575
2361 0.00532721
2364 0.00607695
2367 0.00878503
2370 0.0143402
2373 0.0285281
2376 0.0525409
2379 0.0455084
2382 0.0200558
2385 0.00984997
2388 0.00696684
2391 0.0065267
2394 0.00709629
2397 0.0109471
2400 0.0155315
2403 0.0146862
2406 0.00939744
2409 0.0056349
2412 0.00467188
2415 0.00575488
2418 0.0080618
2421 0.0125037
2424 0.020113
2427 0.0163734
2430 0.00910103
2433 0.00547225
2436 0.00497104
2439 0.00554529
2442 0.00701529
2445 0.00919766
2448 0.0136862
2451 0.0109453
2454 0.00788984
2457 0.00758533
2460 0.00966598
2463 0.0134089
2466 0.0201989
2469 0.0347009
2472 0.0468586
2475 0.0308803
2478 0.0131063
2481 0.00693374
2484 0.00450366
2487 0.00373473
2490 0.00319418
2493 0.00297352
2496 0.00295822
2499 0.00331089
2502 0.00342897
2505 0.00448487
2508 0.00770937
2511 0.0134858
2514 0.0232477
2517 0.0348858
2520 0.0232883
2523 0.00977357
2526 0.0053391
2529 0.00400702
2532 0.00393454
2535 0.00478264
2538 0.0077535
2541 0.00817413
2544 0.00444149
2547 0.00309531
2550 0.00345742
2553 0.00423153
2556 0.0048079
2559 0.00607917
2562 0.00949751
2565 0.00886416
2568 0.00526437
2571 0.00408069
2574 0.0047235
2577 0.00597324
2580 0.00936782
2583 0.0161784
2586 0.0152626
2589 0.00780605
2592 0.0035833
2595 0.00177826
2598 0.0015069
2601 0.00112461
2604 0.000713539
2607 0.000798532
2610 0.00147212
2613 0.000932384
2616 0.00184724
2619 0.00229072
2622 0.00435201
2625 0.00702571
2628 0.010424
2631 0.00690132
2634 0.00451349
2637 0.00505357
2640 0.00767514
2643 0.0122454
2646 0.0200396
2649 0.0305267
2652 0.0262261
2655 0.0131365
2658 0.00602032
2661 0.00344367
2664 0.00201825
2667 0.000484968
2670 0.00107273
2673 0.000377963
2676 0.000373456
2679 0.000435774
2682 0.000741351
2685 0.000685196
2688 0.000794385
2691 0.00243471
2694 0.00267713
2697 0.00220312
2700 0.00206784
2703 0.00256538
2706 0.00330516
2709 0.0055542
2712 0.00853148
2715 0.00966465
2718 0.00722455
2721 0.00540506
2724 0.00626089
2727 0.0085275
2730 0.0126573
2733 0.0246729
2736 0.0263368
2739 0.0149292
2742 0.00720269
2745 0.00400656
2748 0.00388126
2751 0.00344564
2754 0.00455929
2757 0.00549858
2760 0.00362322
2763 0.00410471
2766 0.00392905
2769 0.00580349
2772 0.0102288
2775 0.0180326
2778 0.0176838
2781 0.00926672
2784 0.00434389
2787 0.00459391
2790 0.0042815
2793 0.00400827
2796 0.00732073
2799 0.00793327
2802 0.00387829
2805 0.00250529
2808 0.00281906
2811 0.00491394
2814 0.0111629
2817 0.0136723
2820 0.00865177
2823 0.0036884
2826 0.000898688
2829 0.000786014
2832 0.00106566
2835 0.000840206
2838 0.000853781
2841 0.000638237
2844 0.00122158
2847 0.00183032
2850 0.00314377
2853 0.00575012
2856 0.00897676
2859 0.0101979
2862 0.00758237
2865 0.00495719
2868 0.0029945
2871 0.00216493
2874 0.00339084
2877 0.0057767
2880 0.00376559
2883 0.00531994
2886 0.00632203
2889 0.00825499
2892 0.0104148
2895 0.0180856
2898 0.0254043
2901 0.0176832
2904 0.00950149
2907 0.00538425
2910 0.00534912
2913 0.00496632
2916 0.00839506
2919 0.0064102
2922 0.00475813
2925 0.00259511
2928 0.00235299
2931 0.00383948
2934 0.00744916
2937 0.00745647
2940 0.00390693
2943 0.00268408
2946 0.00297275
2949 0.00295076
2952 0.00391679
2955 0.00642904
2958 0.00658935
2961 0.00356258
2964 0.00238067
2967 0.00325543
2970 0.00486976
2973 0.00696704
2976 0.00873064
2979 0.00642836
2982 0.00311409
2985 0.000731556
2988 0.00152879
2991 0.00045883
2994 0.00118143
2997 0.00132627
3000 0.000498249
3003 0.00132622
3006 0.0028078
3009 0.00252946
3012 0.00341433
3015 0.00480322
3018 0.00602527
3021 0.00397392
3024 0.00309452
3027 0.00333956
3030 0.0046008
3033 0.00738671
3036 0.00703993
3039 0.00440026
3042 0.0026461
3045 0.0036248
3048 0.00497183
3051 0.00684563
3054 0.00790504
3057 0.00618691
3060 0.00511258
3063 0.00406234
3066 0.0053064
3069 0.00909322
3072 0.00893089
3075 0.00722311
3078 0.00528743
3081 0.00500289
3084 0.00508367
3087 0.0084037
3090 0.0115113
3093 0.00915527
3096 0.00457273
3099 0.00477503
3102 0.00380519
3105 0.00461102
3108 0.00549038
3111 0.00576874
3114 0.00584986
3117 0.00568364
3120 0.00775456
3123 0.0113657
3126 0.0166978
3129 0.0141731
3132 0.0100877
3135 0.00631617
3138 0.00450877
3141 0.00196078
3144 0.0034732
3147 0.00246241
3150 0.00330164
3153 0.00355742
3156 0.00468982
3159 0.00626772
3162 0.00847221
3165 0.00696515
3168 0.00535615
3171 0.00408592
3174 0.00581881
3177 0.0064043
3180 0.00776634
3183 0.00911886
3186 0.00838889
3189 0.00814127
3192 0.00860298
3195 0.0097059
3198 0.0149475
3201 0.0164633
3204 0.0103609
3207 0.00583283
3210 0.00474268
3213 0.00336875
3216 0.00427406
3219 0.00598878
3222 0.00522005
3225 0.00363766
3228 0.00221102
3231 0.00166293
3234 0.00136393
3237 0.00198171
3240 0.0025436
3243 0.00239369
3246 0.00223579
3249 0.00254281
3252 0.00316729
3255 0.00511144
3258 0.00701247
3261 0.00374949
3264 0.00600522
3267 0.00668302
3270 0.0114549
3273 0.00972779
3276 0.00650548
3279 0.00327647
3282 0.0020253
3285 0.000000000000000000e+00
3288 0.00307415
3291 0.00317119
3294 0.00418683
3297 0.00274937
3300 0.00370898
3303 0.000441659
3306 0.00412516
3309 0.00349597
3312 0.00436258
3315 0.00388142
3318 0.00508151
3321 0.00375377
3324 0.00397286
3327 0.00574944
3330 0.0051838
3333 0.00504805
3336 0.00660666
3339 0.00783982
3342 0.0108806
3345 0.010013
3348 0.00546271
3351 0.00379189
3354 0.00732812
3357 0.00535337
3360 0.00743579
3363 0.00727507
3366 0.00421203
3369 0.00482726
3372 0.00442836
3375 0.00636543
3378 0.00648824
3381 0.00559779
3384 0.00383478
3387 0.00495998
3390 0.00591789
3393 0.00688087
3396 0.00539468
3399 0.00414269
3402 0.00712858
3405 0.00458959
3408 0.00270994
3411 0.00341147
3414 0.00628675
3417 0.00642376
3420 0.00354426
3423 0.00196582
3426 0.00483595
3429 0.00310302
3432 0.00153754
3435 0.00540443
3438 0.00539149
3441 0.0102002
3444 0.0106395
3447 0.0121576
3450 0.00461471
3453 0.00840922
3456 0.00434929
3459 0.00384904
3462 0.00970683
3465 0.00834129
3468 0.00621643
3471 0.00219961
3474 0.0102336
3477 0.0122356
3480 0.00511283
3483 0.000166136
3486 0.00765141
3487 0.0281309