File: constrainednmf/example_data/BaTiO3_xrd_ramp/BTO_290K_tth.xy
0.000000000000000000e+00 3.01549e-05
3 0.000161571
6 0.000406983
9 0.00238758
12 0.0112639
15 0.0130857
18 0.0124041
21 0.0117958
24 0.0122036
27 0.0121471
30 0.00989365
33 0.00394873
36 0.00282
39 0.00281168
42 0.00290916
45 0.00296525
48 0.00296171
51 0.00300243
54 0.0029661
57 0.0030772
60 0.00309943
63 0.00322007
66 0.00321931
69 0.00320827
72 0.00322537
75 0.00335376
78 0.00342754
81 0.00355536
84 0.00364211
87 0.00366667
90 0.00360698
93 0.00355064
96 0.00347969
99 0.00349302
102 0.00342743
105 0.00343223
108 0.00338516
111 0.00333408
114 0.00339019
117 0.00330724
120 0.00331265
123 0.00327959
126 0.00326117
129 0.00322033
132 0.00319322
135 0.0031421
138 0.00313316
141 0.0030528
144 0.00310314
147 0.00298045
150 0.00296291
153 0.00287592
156 0.00289019
159 0.00287908
162 0.00279955
165 0.0027417
168 0.0027855
171 0.00271216
174 0.00267188
177 0.00257321
180 0.00258098
183 0.00246338
186 0.00241916
189 0.00236873
192 0.00243412
195 0.00242301
198 0.00236756
201 0.00232105
204 0.00227559
207 0.00213718
210 0.00225649
213 0.00219108
216 0.00217577
219 0.00215979
222 0.0021016
225 0.00206125
228 0.00207209
231 0.00205233
234 0.00201107
237 0.00203578
240 0.0020807
243 0.00203835
246 0.00210091
249 0.00211281
252 0.00208172
255 0.00204213
258 0.00211806
261 0.00214846
264 0.00213301
267 0.00214057
270 0.00218894
273 0.00213601
276 0.00231448
279 0.00235092
282 0.00242766
285 0.00252995
288 0.0025476
291 0.00249745
294 0.00251999
297 0.00229455
300 0.00221456
303 0.00206509
306 0.00201344
309 0.00199392
312 0.00206139
315 0.00213382
318 0.00213325
321 0.00217406
324 0.00293734
327 0.00628972
330 0.0334226
333 0.103271
336 0.0698694
339 0.00954328
342 0.00304161
345 0.00186604
348 0.00157215
351 0.00133865
354 0.00128047
357 0.00228299
360 0.00432686
363 0.00342877
366 0.00188142
369 0.00105969
372 0.000754262
375 0.000672384
378 0.000784818
381 0.000732721
384 0.00074283
387 0.000890497
390 0.000700581
393 0.000695954
396 0.000660734
399 0.00070872
402 0.000843081
405 0.000779576
408 0.000884432
411 0.00103029
414 0.0012064
417 0.00135579
420 0.00112134
423 0.00128739
426 0.0013915
429 0.00126502
432 0.00125427
435 0.00141072
438 0.00156149
441 0.0017689
444 0.00216909
447 0.00257454
450 0.0030476
453 0.00362893
456 0.00481267
459 0.00652296
462 0.00993612
465 0.0202693
468 0.0813753
471 0.634867
474 0.831228
477 0.140563
480 0.024404
483 0.0104691
486 0.00650044
489 0.00465891
492 0.00339538
495 0.00243336
498 0.00198709
501 0.00164396
504 0.00171793
507 0.00206584
510 0.00261398
513 0.00223627
516 0.0015785
519 0.000926316
522 0.00060241
525 0.00047983
528 0.000290538
531 0.000223791
534 0.000204107
537 0.000162058
540 0.000249949
543 0.000285953
546 0.000273817
549 0.000327929
552 0.000475925
555 0.000472601
558 0.000595804
561 0.00112049
564 0.00157632
567 0.00238955
570 0.00353213
573 0.0096163
576 0.0588611
579 0.366423
582 0.136249
585 0.0150297
588 0.00491638
591 0.00270277
594 0.00169361
597 0.00140173
600 0.00104366
603 0.00066707
606 0.00041562
609 0.000401748
612 0.000388375
615 0.000625251
618 0.000604768
621 0.00104073
624 0.00182626
627 0.00168267
630 0.0012978
633 0.00139435
636 0.00155977
639 0.0015066
642 0.00158067
645 0.00151064
648 0.00223053
651 0.0032655
654 0.00508556
657 0.00844378
660 0.0181798
663 0.067668
666 0.190941
669 0.251537
672 0.309899
675 0.0758284
678 0.0164348
681 0.00707795
684 0.00440181
687 0.00324825
690 0.00322372
693 0.00286201
696 0.00198509
699 0.00124553
702 0.000824192
705 0.000834643
708 0.000574006
711 0.000332713
714 0.000542152
717 0.000690101
720 0.000561905
723 0.000788989
726 0.000773655
729 0.000958754
732 0.00125324
735 0.00160664
738 0.00349941
741 0.00933854
744 0.0421763
747 0.092965
750 0.117404
753 0.044087
756 0.00767102
759 0.00253322
762 0.00173337
765 0.00111114
768 0.000619868
771 0.000621796
774 0.000823548
777 0.000658472
780 0.000715208
783 0.000833063
786 0.00127252
789 0.00147618
792 0.00155246
795 0.00202543
798 0.00277106
801 0.00375372
804 0.00527486
807 0.0077439
810 0.0137296
813 0.0361097
816 0.170494
819 0.459697
822 0.526926
825 0.110715
828 0.0229963
831 0.00989657
834 0.00603745
837 0.00389329
840 0.00314726
843 0.00223908
846 0.00184633
849 0.00128598
852 0.0009748
855 0.000849939
858 0.00082117
861 0.000893234
864 0.000711928
867 0.000424496
870 0.000229797
873 0.000251967
876 0.000179628
879 0.000228001
882 0.000511867
885 0.000602761
888 0.000468733
891 0.000547389
894 0.000298881
897 0.000238118
900 0.000188285
903 0.000112864
906 7.9455e-05
909 0.000178679
912 0.000145945
915 0.000270709
918 0.000409031
921 0.000676483
924 0.000869087
927 0.00154798
930 0.00237535
933 0.00350301
936 0.00685808
939 0.0158386
942 0.0615233
945 0.238508
948 0.308736
951 0.162303
954 0.0324815
957 0.00994999
960 0.00488421
963 0.00306552
966 0.00194408
969 0.00162737
972 0.00132329
975 0.00150293
978 0.00178384
981 0.00165444
984 0.00119314
987 0.000968134
990 0.00154041
993 0.00252577
996 0.00604514
999 0.0163337
1002 0.0524588
1005 0.09926
1008 0.0582772
1011 0.0152733
1014 0.00407936
1017 0.00166997
1020 0.00138132
1023 0.000922245
1026 0.000884269
1029 0.00114646
1032 0.00139386
1035 0.00167854
1038 0.00233934
1041 0.00341225
1044 0.00533756
1047 0.0100844
1050 0.0267595
1053 0.0886651
1056 0.134615
1059 0.150194
1062 0.209613
1065 0.117748
1068 0.0254123
1071 0.0092778
1074 0.00532187
1077 0.00341618
1080 0.00287723
1083 0.00215518
1086 0.00204011
1089 0.00215322
1092 0.00241453
1095 0.00287004
1098 0.00431465
1101 0.00869971
1104 0.0290748
1107 0.0685933
1110 0.0832347
1113 0.11073
1116 0.0782415
1119 0.016017
1122 0.00519304
1125 0.00244933
1128 0.00142413
1131 0.00131809
1134 0.000767783
1137 0.00074497
1140 0.000866662
1143 0.00099873
1146 0.00145884
1149 0.00225989
1152 0.00445961
1155 0.0128065
1158 0.0650242
1161 0.169536
1164 0.0589773
1167 0.00996396
1170 0.00357152
1173 0.00175521
1176 0.00115083
1179 0.00107149
1182 0.000571062
1185 0.000760187
1188 0.000874122
1191 0.0009819
1194 0.00142973
1197 0.00271239
1200 0.00598182
1203 0.0191915
1206 0.0320875
1209 0.0403395
1212 0.0323716
1215 0.0105315
1218 0.00350349
1221 0.002354
1224 0.00205008
1227 0.00230032
1230 0.00305407
1233 0.00341157
1236 0.00485596
1239 0.00702814
1242 0.0115604
1245 0.0245604
1248 0.0852887
1251 0.215414
1254 0.299428
1257 0.274645
1260 0.0876387
1263 0.0214607
1266 0.00952126
1269 0.00557614
1272 0.00365329
1275 0.00270544
1278 0.0020315
1281 0.00136908
1284 0.00109722
1287 0.000859368
1290 0.000474787
1293 0.000512066
1296 0.000567341
1299 0.000412275
1302 0.000298626
1305 0.000548061
1308 0.000346259
1311 0.000662855
1314 0.000269602
1317 0.000577754
1320 0.000884156
1323 0.00147528
1326 0.00215732
1329 0.00558714
1332 0.0149052
1335 0.0189117
1338 0.0210133
1341 0.0207111
1344 0.0291706
1347 0.0345642
1350 0.0103065
1353 0.00366266
1356 0.00202669
1359 0.00159914
1362 0.0012535
1365 0.00164925
1368 0.00293284
1371 0.00540819
1374 0.0136821
1377 0.0229505
1380 0.0421834
1383 0.0553357
1386 0.0437256
1389 0.0213799
1392 0.0063832
1395 0.00318013
1398 0.00258834
1401 0.00303842
1404 0.00366089
1407 0.0055418
1410 0.0101847
1413 0.028519
1416 0.0573148
1419 0.0872863
1422 0.10546
1425 0.111184
1428 0.104191
1431 0.0302102
1434 0.0103248
1437 0.00523192
1440 0.00363764
1443 0.00274661
1446 0.0028575
1449 0.00326198
1452 0.00528658
1455 0.0128167
1458 0.0369263
1461 0.0613114
1464 0.0483321
1467 0.0254339
1470 0.00675852
1473 0.00351985
1476 0.00288543
1479 0.00293455
1482 0.00378073
1485 0.00574909
1488 0.0111817
1491 0.0323883
1494 0.0618746
1497 0.0709588
1500 0.0830813
1503 0.10621
1506 0.0738676
1509 0.0206175
1512 0.00773473
1515 0.00465451
1518 0.00334822
1521 0.00310283
1524 0.00375082
1527 0.00775958
1530 0.019919
1533 0.0261424
1536 0.0287409
1539 0.0362361
1542 0.0329589
1545 0.0101764
1548 0.00332658
1551 0.00196762
1554 0.00172073
1557 0.00188702
1560 0.00254306
1563 0.00403343
1566 0.0100637
1569 0.0343851
1572 0.0909783
1575 0.0907401
1578 0.0340457
1581 0.00826123
1584 0.00340642
1587 0.00193633
1590 0.0015022
1593 0.00126344
1596 0.00109145
1599 0.000629139
1602 0.000909086
1605 0.00107289
1608 0.000383792
1611 0.00076821
1614 0.000803991
1617 0.000958719
1620 0.0010029
1623 0.00167888
1626 0.00213723
1629 0.00356655
1632 0.00668272
1635 0.0173888
1638 0.046549
1641 0.0627044
1644 0.0783459
1647 0.0971105
1650 0.035518
1653 0.0099821
1656 0.00505774
1659 0.00374321
1662 0.00336078
1665 0.00384686
1668 0.00586024
1671 0.010418
1674 0.0147116
1677 0.0174712
1680 0.0169838
1683 0.0148834
1686 0.00890751
1689 0.0053842
1692 0.00565119
1695 0.00868724
1698 0.0168969
1701 0.0327224
1704 0.0593447
1707 0.0946192
1710 0.118587
1713 0.122665
1716 0.11107
1719 0.0597428
1722 0.0199584
1725 0.00997486
1728 0.00729076
1731 0.00903759
1734 0.0135062
1737 0.0154443
1740 0.0197055
1743 0.0285002
1746 0.0264928
1749 0.0257351
1752 0.0160891
1755 0.00487276
1758 0.00210747
1761 0.00129246
1764 0.000865484
1767 0.000794612
1770 0.000726623
1773 3.69475e-05
1776 0.000149557
1779 0.000389108
1782 0.000274288
1785 0.000854
1788 0.000797196
1791 0.00153646
1794 0.00240612
1797 0.00601602
1800 0.0117905
1803 0.0229175
1806 0.0309899
1809 0.0357236
1812 0.0286223
1815 0.0139504
1818 0.00605504
1821 0.00522095
1824 0.00735711
1827 0.0177878
1830 0.0338353
1833 0.0391537
1836 0.0415314
1839 0.0436804
1842 0.0600699
1845 0.0620546
1848 0.0226661
1851 0.00743503
1854 0.00361995
1857 0.00194962
1860 0.00115165
1863 0.000769582
1866 0.000393833
1869 0.000416286
1872 0.000674451
1875 7.83137e-05
1878 0.000311364
1881 0.000377465
1884 0.000938636
1887 0.00188495
1890 0.00443507
1893 0.0112331
1896 0.0217054
1899 0.0236035
1902 0.0197733
1905 0.0151496
1908 0.00735648
1911 0.00267445
1914 0.00200101
1917 0.00295176
1920 0.00634259
1923 0.0104229
1926 0.0151287
1929 0.0156216
1932 0.0164533
1935 0.0136848
1938 0.00584958
1941 0.00376058
1944 0.00479507
1947 0.00927295
1950 0.0201628
1953 0.0328911
1956 0.0532079
1959 0.0693478
1962 0.0516182
1965 0.027172
1968 0.0114669
1971 0.00646421
1974 0.00650599
1977 0.0117078
1980 0.0190473
1983 0.0209619
1986 0.0236891
1989 0.028488
1992 0.0268777
1995 0.0159935
1998 0.00689431
2001 0.00667533
2004 0.00825585
2007 0.0128838
2010 0.0260497
2013 0.0472486
2016 0.0514261
2019 0.040133
2022 0.0243784
2025 0.0119589
2028 0.00672081
2031 0.00558131
2034 0.00501858
2037 0.00451153
2040 0.00464786
2043 0.00473975
2046 0.0050458
2049 0.00753411
2052 0.00877425
2055 0.00910853
2058 0.0134582
2061 0.0217858
2064 0.0368717
2067 0.0432442
2070 0.04795
2073 0.0590083
2076 0.0594229
2079 0.0364886
2082 0.0139397
2085 0.00608195
2088 0.00365641
2091 0.0025656
2094 0.00205037
2097 0.00130902
2100 0.00149348
2103 0.0017353
2106 0.00230549
2109 0.00418817
2112 0.00948622
2115 0.0122963
2118 0.0132137
2121 0.0144033
2124 0.0145098
2127 0.016327
2130 0.0236091
2133 0.0265688
2136 0.0138427
2139 0.00943544
2142 0.0102627
2145 0.0131347
2148 0.0172036
2151 0.0213271
2154 0.0200251
2157 0.0177748
2160 0.0137105
2163 0.00703852
2166 0.00743797
2169 0.0145371
2172 0.0244673
2175 0.0325981
2178 0.0375179
2181 0.0324098
2184 0.0262508
2187 0.0135913
2190 0.00540534
2193 0.00376315
2196 0.00563076
2199 0.00897724
2202 0.0100605
2205 0.0124985
2208 0.012847
2211 0.00538751
2214 0.00433005
2217 0.00744085
2220 0.0108022
2223 0.0120846
2226 0.0129451
2229 0.0132367
2232 0.0157692
2235 0.02396
2238 0.0180962
2241 0.00764267
2244 0.00632781
2247 0.00806891
2250 0.0109865
2253 0.0129946
2256 0.0145172
2259 0.0130841
2262 0.0103364
2265 0.00753118
2268 0.0105488
2271 0.0153122
2274 0.0159273
2277 0.0169293
2280 0.0183074
2283 0.0232869
2286 0.0269547
2289 0.0180196
2292 0.00578502
2295 0.00253746
2298 0.00113696
2301 0.000466021
2304 4.18916e-05
2307 0.000232635
2310 0.000188752
2313 2.08702e-05
2316 0.000265528
2319 0.0003823
2322 0.00151958
2325 0.00379746
2328 0.00996323
2331 0.0117651
2334 0.00556834
2337 0.00254619
2340 0.00249706
2343 0.00466974
2346 0.00566411
2349 0.00586336
2352 0.00633882
2355 0.00791885
2358 0.0107467
2361 0.0120885
2364 0.0107426
2367 0.0113546
2370 0.0175713
2373 0.0306298
2376 0.0414399
2379 0.0469741
2382 0.0398992
2385 0.0266301
2388 0.0198906
2391 0.0122285
2394 0.0105031
2397 0.0113989
2400 0.0122949
2403 0.0110453
2406 0.0103586
2409 0.0118782
2412 0.0109439
2415 0.00983981
2418 0.0108463
2421 0.01141
2424 0.0131616
2427 0.0150624
2430 0.0147994
2433 0.0142886
2436 0.0102582
2439 0.00802552
2442 0.00818369
2445 0.00839694
2448 0.00921619
2451 0.0106205
2454 0.0128758
2457 0.0162132
2460 0.0170262
2463 0.0197701
2466 0.0246755
2469 0.0292498
2472 0.0305921
2475 0.0321389
2478 0.0348987
2481 0.027695
2484 0.0127585
2487 0.00581582
2490 0.00342511
2493 0.00276367
2496 0.00267255
2499 0.00248699
2502 0.00299776
2505 0.0051377
2508 0.0111443
2511 0.0168042
2514 0.01933
2517 0.0229855
2520 0.0279688
2523 0.0264365
2526 0.0189981
2529 0.00835119
2532 0.00496849
2535 0.00567865
2538 0.00675586
2541 0.00755017
2544 0.00651766
2547 0.00612859
2550 0.00661022
2553 0.00528825
2556 0.00498372
2559 0.00502589
2562 0.00523492
2565 0.00610835
2568 0.00871893
2571 0.0116863
2574 0.0102119
2577 0.00781676
2580 0.0093717
2583 0.0114863
2586 0.01192
2589 0.011774
2592 0.0111967
2595 0.00759274
2598 0.00268702
2601 0.000460331
2604 0.000877733
2607 0.000702183
2610 0.000401572
2613 0.000759615
2616 0.0013733
2619 0.00326732
2622 0.00512402
2625 0.00657167
2628 0.00708566
2631 0.00910744
2634 0.00944152
2637 0.010623
2640 0.0136685
2643 0.0168965
2646 0.0195546
2649 0.0229839
2652 0.0221217
2655 0.0238926
2658 0.0236805
2661 0.0131086
2664 0.0047411
2667 0.00198778
2670 0.00144441
2673 0.00106926
2676 0.00087434
2679 0.000773149
2682 0.000200902
2685 0.000396301
2688 0.000366027
2691 0.00105735
2694 0.00142065
2697 0.00202338
2700 0.0027467
2703 0.00489358
2706 0.00591932
2709 0.00606818
2712 0.00719369
2715 0.0078828
2718 0.00993342
2721 0.0110512
2724 0.0132377
2727 0.0133761
2730 0.0144355
2733 0.018924
2736 0.0219992
2739 0.0215827
2742 0.017888
2745 0.016574
2748 0.0110418
2751 0.00607961
2754 0.00433093
2757 0.00464834
2760 0.00684769
2763 0.00815359
2766 0.00643494
2769 0.00768426
2772 0.0108515
2775 0.0122163
2778 0.0153382
2781 0.0159322
2784 0.0132049
2787 0.0132493
2790 0.00907653
2793 0.00591122
2796 0.00554156
2799 0.00524843
2802 0.00517961
2805 0.00638307
2808 0.00789449
2811 0.008697
2814 0.0106678
2817 0.0130708
2820 0.0126637
2823 0.0102174
2826 0.00583286
2829 0.00262084
2832 0.00176723
2835 0.00055194
2838 0.000697654
2841 0.00162873
2844 0.00188342
2847 0.0030326
2850 0.00373258
2853 0.00453182
2856 0.00643971
2859 0.00671571
2862 0.00680839
2865 0.00835519
2868 0.0103366
2871 0.00741989
2874 0.00536525
2877 0.00485392
2880 0.00576702
2883 0.00774482
2886 0.0103745
2889 0.0145096
2892 0.0145468
2895 0.0147286
2898 0.016488
2901 0.0182783
2904 0.0221867
2907 0.0208382
2910 0.0145443
2913 0.00964951
2916 0.00831333
2919 0.00808351
2922 0.00648437
2925 0.0058933
2928 0.00551372
2931 0.00594681
2934 0.00699875
2937 0.00795379
2940 0.00697897
2943 0.00651536
2946 0.00528193
2949 0.0041209
2952 0.00506098
2955 0.00533284
2958 0.0051593
2961 0.00560238
2964 0.00568598
2967 0.00684359
2970 0.00568883
2973 0.00526087
2976 0.00755123
2979 0.00686513
2982 0.00631971
2985 0.00557672
2988 0.00301347
2991 0.00186935
2994 0.000000000000000000e+00
2997 0.00157072
3000 0.00189448
3003 0.00129987
3006 0.00232218
3009 0.00263656
3012 0.00346789
3015 0.00279768
3018 0.0051067
3021 0.00622384
3024 0.00726839
3027 0.007937
3030 0.00630947
3033 0.00622329
3036 0.00658891
3039 0.00740786
3042 0.00704277
3045 0.00630496
3048 0.00521599
3051 0.00540078
3054 0.00442083
3057 0.00522414
3060 0.00895331
3063 0.00947583
3066 0.00965915
3069 0.00650976
3072 0.00879052
3075 0.00862952
3078 0.0102497
3081 0.00950309
3084 0.00669089
3087 0.00706316
3090 0.00686522
3093 0.00945581
3096 0.00960575
3099 0.0111412
3102 0.00767143
3105 0.00556902
3108 0.00642007
3111 0.00589304
3114 0.00680549
3117 0.0092534
3120 0.0111779
3123 0.0129368
3126 0.014904
3129 0.0151861
3132 0.012426
3135 0.00981743
3138 0.010511
3141 0.00834189
3144 0.00490929
3147 0.00269776
3150 0.00320219
3153 0.00305168
3156 0.00300894
3159 0.00476325
3162 0.0058371
3165 0.00799176
3168 0.0078962
3171 0.00817282
3174 0.00720068
3177 0.00664163
3180 0.00637733
3183 0.00801763
3186 0.00901251
3189 0.0110086
3192 0.0128743
3195 0.0138908
3198 0.0112579
3201 0.012825
3204 0.015514
3207 0.0134303
3210 0.0119949
3213 0.00884178
3216 0.00576629
3219 0.00365356
3222 0.0029141
3225 0.00214247
3228 0.00193543
3231 0.00363368
3234 0.000940396
3237 0.00239272
3240 0.00100948
3243 3.08578e-05
3246 0.00181534
3249 0.0010617
3252 0.00331799
3255 0.00369092
3258 0.00611871
3261 0.00571551
3264 0.00720757
3267 0.00634622
3270 0.00791054
3273 0.00547167
3276 0.00733551
3279 0.00820261
3282 0.00700729
3285 0.00690781
3288 0.00198518
3291 0.000273373
3294 0.00189295
3297 0.00320156
3300 0.0017512
3303 0.00235105
3306 0.0032677
3309 0.00208709
3312 0.00561669
3315 0.004485
3318 0.00280505
3321 0.00306545
3324 0.00408915
3327 0.00498503
3330 0.00619979
3333 0.00544533
3336 0.00708
3339 0.00612182
3342 0.00946614
3345 0.00743857
3348 0.0122797
3351 0.0108353
3354 0.00967818
3357 0.00764311
3360 0.00631566
3363 0.00581213
3366 0.00528122
3369 0.00501929
3372 0.00675724
3375 0.00374223
3378 0.00700417
3381 0.00591792
3384 0.00596189
3387 0.00556551
3390 0.0065945
3393 0.00638117
3396 0.00791625
3399 0.00453871
3402 0.00748141
3405 0.00643879
3408 0.00516031
3411 0.00641483
3414 0.00364241
3417 0.00440673
3420 0.00222531
3423 0.00383983
3426 0.00214685
3429 0.00371079
3432 0.00618638
3435 0.00393565
3438 0.00663033
3441 0.00625506
3444 0.00859508
3447 0.00986659
3450 0.00835194
3453 0.00958407
3456 0.00942909
3459 0.00762564
3462 0.0075119
3465 0.00762598
3468 0.0109345
3471 0.00281128
3474 0.00489102
3477 0.0111592
3480 0.0161486
3483 0.0129626
3486 0.0255283
3487 0.0250581