File: constrainednmf/example_data/BaTiO3_xrd_ramp/BTO_340K_tth.xy
0.000000000000000000e+00 0.000322652
3 0.000375308
6 0.000569548
9 0.00269812
12 0.0122549
15 0.0141093
18 0.0133922
21 0.0126231
24 0.0130363
27 0.0129527
30 0.010365
33 0.00399688
36 0.00276628
39 0.0027517
42 0.00286323
45 0.00291895
48 0.0028795
51 0.0028263
54 0.00286184
57 0.00293209
60 0.00300735
63 0.00303011
66 0.00298833
69 0.00307156
72 0.00312349
75 0.00321141
78 0.00328803
81 0.00341107
84 0.00351552
87 0.00355699
90 0.00354257
93 0.00343428
96 0.00342428
99 0.00337465
102 0.00340336
105 0.00331091
108 0.0033847
111 0.00332414
114 0.00340928
117 0.00339034
120 0.00328551
123 0.00331557
126 0.00317817
129 0.00330873
132 0.00336373
135 0.00324538
138 0.00326241
141 0.00325008
144 0.00330602
147 0.00324614
150 0.00324435
153 0.00313097
156 0.00322781
159 0.00317321
162 0.00318451
165 0.00308581
168 0.00312898
171 0.00309212
174 0.00303166
177 0.00293071
180 0.00298918
183 0.00290151
186 0.00287474
189 0.00291678
192 0.00283962
195 0.00285075
198 0.00286179
201 0.00283398
204 0.00273937
207 0.00276335
210 0.0026842
213 0.0027899
216 0.00273927
219 0.00274419
222 0.00271953
225 0.00273943
228 0.00266602
231 0.00274516
234 0.00268827
237 0.00270462
240 0.00268975
243 0.00271671
246 0.00271707
249 0.00275389
252 0.00283136
255 0.00274033
258 0.00273538
261 0.00291595
264 0.00286521
267 0.00279432
270 0.0029411
273 0.0029963
276 0.00309631
279 0.0030968
282 0.00328642
285 0.00317885
288 0.00323654
291 0.00316794
294 0.00315794
297 0.00305253
300 0.00286727
303 0.00274226
306 0.00263546
309 0.00252692
312 0.0025903
315 0.0026194
318 0.00260192
321 0.00274767
324 0.00365957
327 0.00725861
330 0.0371445
333 0.104045
336 0.0697203
339 0.00960151
342 0.00335804
345 0.00239607
348 0.0020173
351 0.00180169
354 0.00194047
357 0.00281873
360 0.00471205
363 0.00385827
366 0.00236215
369 0.00127645
372 0.00122872
375 0.00107632
378 0.00114788
381 0.00112168
384 0.00109023
387 0.00119538
390 0.00114002
393 0.00106114
396 0.00107911
399 0.00103773
402 0.00110782
405 0.00105923
408 0.00124058
411 0.00148174
414 0.00171581
417 0.00167796
420 0.00142555
423 0.00160838
426 0.00188426
429 0.00152051
432 0.00151891
435 0.00172836
438 0.0018474
441 0.00206329
444 0.00232601
447 0.0028823
450 0.00361652
453 0.00415759
456 0.00516634
459 0.0069265
462 0.0104791
465 0.0214575
468 0.0865784
471 0.694463
474 0.801187
477 0.13405
480 0.0241348
483 0.0105294
486 0.00664119
489 0.00496538
492 0.00356807
495 0.00274867
498 0.00226494
501 0.00182789
504 0.00191841
507 0.00244625
510 0.00286963
513 0.00241919
516 0.00200754
519 0.00124632
522 0.000820856
525 0.000696472
528 0.000469437
531 0.00042479
534 0.000463285
537 0.000507117
540 0.000391287
543 0.000300091
546 0.000471212
549 0.000641562
552 0.000611024
555 0.000869656
558 0.00107212
561 0.0012389
564 0.00181144
567 0.00251965
570 0.00412067
573 0.0106597
576 0.064633
579 0.386978
582 0.121467
585 0.0144514
588 0.0049507
591 0.00293362
594 0.00201812
597 0.0016243
600 0.00127282
603 0.000961314
606 0.00107336
609 0.000632679
612 0.000889866
615 0.000767342
618 0.000929214
621 0.00125267
624 0.00216097
627 0.00210814
630 0.00165081
633 0.00171667
636 0.00198026
639 0.0019087
642 0.00177375
645 0.00193581
648 0.00257885
651 0.00381595
654 0.00565643
657 0.00928217
660 0.0202615
663 0.0810231
666 0.191135
669 0.234089
672 0.343722
675 0.0628808
678 0.0156318
681 0.007155
684 0.00467594
687 0.00378931
690 0.0039498
693 0.00301228
696 0.00202764
699 0.001453
702 0.00120061
705 0.00102671
708 0.00111412
711 0.00071458
714 0.000650201
717 0.000940965
720 0.000963156
723 0.00143437
726 0.00109466
729 0.00143286
732 0.00175676
735 0.0023348
738 0.00409534
741 0.0106095
744 0.0482234
747 0.0866675
750 0.126699
753 0.0387852
756 0.00738713
759 0.00309808
762 0.00199272
765 0.00141813
768 0.00145261
771 0.00129148
774 0.00134309
777 0.00128461
780 0.00129705
783 0.00152955
786 0.00167384
789 0.0019466
792 0.00246022
795 0.00283717
798 0.00339131
801 0.00431282
804 0.00587811
807 0.00884945
810 0.0153365
813 0.0408512
816 0.191774
819 0.457008
822 0.5319
825 0.0936404
828 0.0218364
831 0.0100633
834 0.00636837
837 0.0046312
840 0.00366033
843 0.00264791
846 0.00232294
849 0.00187608
852 0.00150749
855 0.00140626
858 0.000986242
861 0.00126708
864 0.000960311
867 0.000803435
870 0.00078001
873 0.000626342
876 0.000650964
879 0.000428513
882 0.000906203
885 0.000964112
888 0.000956494
891 0.000499219
894 0.000554539
897 0.000808466
900 0.00042739
903 0.000401285
906 0.000279081
909 0.000508163
912 0.000573576
915 0.000310261
918 0.00110929
921 0.00100722
924 0.00143224
927 0.00182589
930 0.00257054
933 0.00404598
936 0.00743107
939 0.0167228
942 0.0632755
945 0.283504
948 0.276689
951 0.157601
954 0.0300633
957 0.00967612
960 0.00476131
963 0.00319193
966 0.00211986
969 0.00175556
972 0.00159221
975 0.00167551
978 0.00186821
981 0.00154438
984 0.00132971
987 0.00127901
990 0.0016926
993 0.00289312
996 0.00689346
999 0.0177299
1002 0.0556855
1005 0.0979829
1008 0.0572754
1011 0.0125017
1014 0.00371169
1017 0.00177941
1020 0.00141528
1023 0.000884214
1026 0.000663493
1029 0.00123524
1032 0.00141055
1035 0.00186371
1038 0.00247793
1041 0.00327538
1044 0.0057837
1047 0.0111116
1050 0.0314416
1053 0.107738
1056 0.113541
1059 0.131388
1062 0.261432
1065 0.0919337
1068 0.0209288
1071 0.00869057
1074 0.00518589
1077 0.00333673
1080 0.00256852
1083 0.00214291
1086 0.00216509
1089 0.00199806
1092 0.00222202
1095 0.002776
1098 0.00459537
1101 0.00999652
1104 0.0349742
1107 0.0709301
1110 0.0672051
1113 0.135724
1116 0.0642225
1119 0.0128042
1122 0.00465743
1125 0.00245657
1128 0.00121696
1131 0.000785154
1134 0.000862115
1137 0.000709529
1140 0.00102182
1143 0.00094399
1146 0.00152295
1149 0.00231337
1152 0.00487565
1155 0.0138025
1158 0.0727038
1161 0.177671
1164 0.0444733
1167 0.00809103
1170 0.00327981
1173 0.00151717
1176 0.00129595
1179 0.000915198
1182 0.000617038
1185 0.000856457
1188 0.000756992
1191 0.000880487
1194 0.00138052
1197 0.00297359
1200 0.00657453
1203 0.0213189
1206 0.0322969
1209 0.039855
1212 0.0313782
1215 0.00922598
1218 0.00308302
1221 0.00243075
1224 0.00221976
1227 0.00245805
1230 0.00285326
1233 0.00352657
1236 0.00448398
1239 0.00700412
1242 0.0123722
1245 0.0272923
1248 0.096465
1251 0.226225
1254 0.303266
1257 0.263561
1260 0.0705045
1263 0.0189183
1266 0.00917293
1269 0.00545616
1272 0.00329745
1275 0.00279862
1278 0.00182116
1281 0.00132284
1284 0.00106287
1287 0.000606593
1290 0.000549352
1293 0.000615986
1296 0.000298057
1299 0.00046809
1302 0.000452105
1305 0.000353207
1308 0.00039198
1311 0.000338691
1314 6.33969e-05
1317 0.000608853
1320 0.000827296
1323 0.00153416
1326 0.00223604
1329 0.00702237
1332 0.0192009
1335 0.0171854
1338 0.0126939
1341 0.0185531
1344 0.0446123
1347 0.0287503
1350 0.00741823
1353 0.00316046
1356 0.00169563
1359 0.00132616
1362 0.00138298
1365 0.00184067
1368 0.00300713
1371 0.00643521
1374 0.0170276
1377 0.0221043
1380 0.0383079
1383 0.058083
1386 0.047516
1389 0.0164865
1392 0.00533432
1395 0.00322449
1398 0.00273897
1401 0.00325825
1404 0.00367833
1407 0.00658897
1410 0.0118882
1413 0.0345655
1416 0.0626165
1419 0.0817922
1422 0.0933975
1425 0.132871
1428 0.0935643
1431 0.0223012
1434 0.00909458
1437 0.00536689
1440 0.00418585
1443 0.00328668
1446 0.00325761
1449 0.0039645
1452 0.00572072
1455 0.012941
1458 0.0452289
1461 0.0613265
1464 0.0425597
1467 0.0237511
1470 0.00699294
1473 0.00377596
1476 0.00333658
1479 0.00370151
1482 0.00451702
1485 0.00695476
1488 0.0132876
1491 0.0394759
1494 0.0685269
1497 0.0542202
1500 0.0874891
1503 0.120716
1506 0.0605561
1509 0.0165656
1512 0.00715635
1515 0.00482929
1518 0.00394266
1521 0.00386947
1524 0.00491889
1527 0.0092061
1530 0.0235105
1533 0.0236907
1536 0.0247853
1539 0.0449982
1542 0.030155
1545 0.00846071
1548 0.00362931
1551 0.00247413
1554 0.00248745
1557 0.00243091
1560 0.00338387
1563 0.00521498
1566 0.011186
1569 0.038457
1572 0.103302
1575 0.0817965
1578 0.0264857
1581 0.00741731
1584 0.00374081
1587 0.00270819
1590 0.00203741
1593 0.00185122
1596 0.00125414
1599 0.00107962
1602 0.00136071
1605 0.00117847
1608 0.00118131
1611 0.0011795
1614 0.00125404
1617 0.00172496
1620 0.0018718
1623 0.00237135
1626 0.00335422
1629 0.00446994
1632 0.00812979
1635 0.0208658
1638 0.052645
1641 0.0540697
1644 0.0859748
1647 0.0971302
1650 0.0249833
1653 0.00910304
1656 0.00567706
1659 0.00404145
1662 0.00406198
1665 0.00475941
1668 0.00674269
1671 0.0111845
1674 0.015776
1677 0.016992
1680 0.0166072
1683 0.0168895
1686 0.00794772
1689 0.0060042
1692 0.00648638
1695 0.00980368
1698 0.0202318
1701 0.0390282
1704 0.0600326
1707 0.0944141
1710 0.112859
1713 0.120024
1716 0.122453
1719 0.0442512
1722 0.0158354
1725 0.00936567
1728 0.0081241
1731 0.0105423
1734 0.016544
1737 0.0142395
1740 0.0152592
1743 0.0274186
1746 0.029954
1749 0.0310517
1752 0.010469
1755 0.00439352
1758 0.00244213
1761 0.00184044
1764 0.0014961
1767 0.00126624
1770 0.00102797
1773 0.000704469
1776 0.00116564
1779 0.000779323
1782 0.000857182
1785 0.000716723
1788 0.00111348
1791 0.00225045
1794 0.00343976
1797 0.00803919
1800 0.0132181
1803 0.0225959
1806 0.0299117
1809 0.037219
1812 0.0284288
1815 0.0114382
1818 0.0055627
1821 0.00617601
1824 0.00844855
1827 0.0218441
1830 0.0410277
1833 0.0317559
1836 0.0269523
1839 0.0433848
1842 0.0819967
1845 0.0524411
1848 0.0149199
1851 0.00634611
1854 0.00345703
1857 0.00224884
1860 0.00135216
1863 0.000966313
1866 0.000809706
1869 0.000336932
1872 0.000128939
1875 0.000632574
1878 0.000624469
1881 0.000678281
1884 0.000971712
1887 0.00169319
1890 0.00439417
1893 0.0123048
1896 0.0285781
1899 0.0195123
1902 0.014742
1905 0.0162556
1908 0.00606645
1911 0.00255699
1914 0.00232569
1917 0.0031787
1920 0.00701763
1923 0.0103948
1926 0.0154218
1929 0.0140401
1932 0.0176204
1935 0.0120027
1938 0.0046697
1941 0.00351519
1944 0.00526014
1947 0.0107286
1950 0.0225438
1953 0.0325982
1956 0.0528665
1959 0.0718284
1962 0.044519
1965 0.0234679
1968 0.00915375
1971 0.00563151
1974 0.00627205
1977 0.0131225
1980 0.0212918
1983 0.0175871
1986 0.0227498
1989 0.0303862
1992 0.0263771
1995 0.0121964
1998 0.00602202
2001 0.00764812
2004 0.00833319
2007 0.0117358
2010 0.0275826
2013 0.0533245
2016 0.0424181
2019 0.0398976
2022 0.0231405
2025 0.00854547
2028 0.00571715
2031 0.0059484
2034 0.00455255
2037 0.00317133
2040 0.00335466
2043 0.00387419
2046 0.00647074
2049 0.0101812
2052 0.007825
2055 0.00941912
2058 0.0157515
2061 0.0234958
2064 0.0361914
2067 0.0343847
2070 0.0423628
2073 0.0675721
2076 0.063302
2079 0.0262733
2082 0.00898621
2085 0.00480311
2088 0.00298097
2091 0.00218407
2094 0.00166791
2097 0.00148786
2100 0.00199407
2103 0.00167475
2106 0.00270726
2109 0.00465327
2112 0.0116879
2115 0.0139606
2118 0.009474
2121 0.00827908
2124 0.0103635
2127 0.0206367
2130 0.0338057
2133 0.021225
2136 0.00922584
2139 0.00930453
2142 0.0104132
2145 0.0112419
2148 0.0153983
2151 0.0199598
2154 0.0195279
2157 0.0195992
2160 0.0104598
2163 0.00578411
2166 0.00672915
2169 0.014235
2172 0.0284467
2175 0.0355051
2178 0.0325106
2181 0.0257906
2184 0.0264477
2187 0.0106966
2190 0.0044371
2193 0.0034135
2196 0.0055397
2199 0.00922801
2202 0.00894772
2205 0.0147956
2208 0.0112423
2211 0.0044215
2214 0.00438609
2217 0.00930255
2220 0.0128788
2223 0.00937419
2226 0.0081695
2229 0.0107477
2232 0.0220538
2235 0.0285376
2238 0.0111932
2241 0.00584504
2244 0.00614902
2247 0.00814074
2250 0.0110066
2253 0.0125479
2256 0.013401
2259 0.0132039
2262 0.0098174
2265 0.00670726
2268 0.0123722
2271 0.0170297
2274 0.0131772
2277 0.011433
2280 0.0177782
2283 0.0297652
2286 0.0274563
2289 0.0127097
2292 0.00437722
2295 0.00195371
2298 0.00119462
2301 0.000764022
2304 0.000764768
2307 0.000277231
2310 0.000741304
2313 0.000532653
2316 0.0005369
2319 0.000805152
2322 0.00200799
2325 0.00439465
2328 0.0123233
2331 0.0104581
2334 0.00401909
2337 0.00253449
2340 0.00331536
2343 0.00529541
2346 0.00626521
2349 0.00540863
2352 0.00570225
2355 0.00911785
2358 0.013218
2361 0.0122415
2364 0.0108467
2367 0.0110877
2370 0.0161984
2373 0.0319198
2376 0.0414819
2379 0.0431981
2382 0.0379603
2385 0.0290265
2388 0.0165343
2391 0.00953093
2394 0.00887229
2397 0.0117143
2400 0.0115418
2403 0.0094665
2406 0.0124763
2409 0.0151494
2412 0.00984299
2415 0.0103122
2418 0.0125351
2421 0.0110842
2424 0.0137233
2427 0.0157386
2430 0.0145626
2433 0.0147848
2436 0.00990616
2439 0.00851636
2442 0.00854311
2445 0.00782451
2448 0.00995798
2451 0.0110967
2454 0.0145996
2457 0.0184195
2460 0.0177975
2463 0.0181558
2466 0.0216198
2469 0.0259324
2472 0.0263443
2475 0.036729
2478 0.0407541
2481 0.0213108
2484 0.0087871
2487 0.00493129
2490 0.00412445
2493 0.00406945
2496 0.00364765
2499 0.00376579
2502 0.00365663
2505 0.00655221
2508 0.0132446
2511 0.0190677
2514 0.0176154
2517 0.0235032
2520 0.028338
2523 0.0259499
2526 0.0159516
2529 0.0073763
2532 0.00485928
2535 0.00528621
2538 0.00667519
2541 0.00827264
2544 0.00738653
2547 0.00774366
2550 0.0073283
2553 0.00584593
2556 0.0041409
2559 0.00403835
2562 0.00517798
2565 0.0083638
2568 0.0110867
2571 0.0120843
2574 0.0100599
2577 0.00744707
2580 0.00893202
2583 0.0107241
2586 0.0119867
2589 0.0141496
2592 0.0112172
2595 0.00603966
2598 0.00220339
2601 0.00123491
2604 0.00143725
2607 0.00113658
2610 0.000902253
2613 0.00114155
2616 0.00191088
2619 0.0037002
2622 0.00608648
2625 0.00712911
2628 0.00877555
2631 0.00952256
2634 0.00975974
2637 0.01188
2640 0.0138201
2643 0.0169598
2646 0.0193902
2649 0.0197978
2652 0.019303
2655 0.0261818
2658 0.0223034
2661 0.00963011
2664 0.00385005
2667 0.00271706
2670 0.001251
2673 0.00135834
2676 0.00174512
2679 0.0010464
2682 0.000762925
2685 0.000801323
2688 0.000489717
2691 0.00129132
2694 0.00151566
2697 0.00326743
2700 0.00421718
2703 0.0053493
2706 0.00538441
2709 0.00657296
2712 0.00744258
2715 0.00837069
2718 0.010282
2721 0.01311
2724 0.0134084
2727 0.01158
2730 0.0114698
2733 0.0170102
2736 0.022799
2739 0.0212292
2742 0.0210204
2745 0.0157263
2748 0.00775359
2751 0.00506225
2754 0.00401163
2757 0.00556543
2760 0.00873842
2763 0.00801361
2766 0.00508662
2769 0.00633596
2772 0.00908196
2775 0.0102582
2778 0.0156187
2781 0.0172443
2784 0.0153283
2787 0.0105623
2790 0.00564997
2793 0.00436284
2796 0.00347122
2799 0.00490536
2802 0.0069644
2805 0.00766718
2808 0.00615288
2811 0.00782746
2814 0.0113348
2817 0.0127991
2820 0.0101456
2823 0.00891626
2826 0.00406075
2829 0.00143796
2832 0.00100997
2835 0.000000000000000000e+00
2838 0.00102166
2841 0.00164632
2844 0.00376459
2847 0.00321079
2850 0.00371895
2853 0.00557611
2856 0.00559358
2859 0.00453272
2862 0.00784323
2865 0.0123202
2868 0.0094845
2871 0.0047505
2874 0.003948
2877 0.00356017
2880 0.00430856
2883 0.00907036
2886 0.0112624
2889 0.0134182
2892 0.011241
2895 0.00968134
2898 0.0134845
2901 0.0198409
2904 0.0223182
2907 0.018335
2910 0.0117137
2913 0.00724932
2916 0.00789977
2919 0.00702741
2922 0.00560201
2925 0.00585738
2928 0.00483262
2931 0.00659853
2934 0.00744348
2937 0.00572501
2940 0.00535533
2943 0.00724016
2946 0.00550795
2949 0.00343048
2952 0.00455812
2955 0.00410589
2958 0.00594552
2961 0.00657239
2964 0.00641289
2967 0.00613723
2970 0.00618782
2973 0.00592704
2976 0.00733454
2979 0.00613431
2982 0.00568337
2985 0.00518881
2988 0.00179677
2991 0.000235388
2994 0.00156964
2997 0.000378893
3000 0.0015051
3003 0.00232718
3006 0.00248746
3009 0.000880046
3012 0.00315356
3015 0.00336794
3018 0.00672666
3021 0.00661824
3024 0.0058863
3027 0.00412297
3030 0.00609023
3033 0.00627974
3036 0.0072264
3039 0.00867213
3042 0.00671141
3045 0.00454299
3048 0.00354462
3051 0.0041007
3054 0.00526442
3057 0.00742732
3060 0.0104243
3063 0.00933728
3066 0.00701021
3069 0.00613528
3072 0.00864739
3075 0.0108957
3078 0.010518
3081 0.00892195
3084 0.00685105
3087 0.00577061
3090 0.00689234
3093 0.00994498
3096 0.0123475
3099 0.0101062
3102 0.007145
3105 0.00553177
3108 0.00647331
3111 0.00627997
3114 0.00682616
3117 0.00870725
3120 0.0110863
3123 0.0130407
3126 0.0139701
3129 0.0130368
3132 0.0116076
3135 0.013726
3138 0.0115164
3141 0.00522912
3144 0.00294918
3147 0.0025083
3150 0.00337562
3153 0.00318436
3156 0.00347809
3159 0.00599656
3162 0.0077797
3165 0.00768965
3168 0.00819621
3171 0.00652274
3174 0.00562441
3177 0.00639763
3180 0.00574288
3183 0.00916889
3186 0.0098334
3189 0.0119318
3192 0.0102403
3195 0.0113085
3198 0.0110588
3201 0.0143235
3204 0.0159534
3207 0.0130536
3210 0.0114636
3213 0.00663114
3216 0.00380264
3219 0.00152309
3222 0.00355235
3225 0.00411474
3228 0.00426404
3231 0.0033579
3234 0.000228841
3237 0.000638022
3240 0.00178554
3243 0.00287156
3246 0.00129284
3249 0.00281598
3252 0.0037937
3255 0.0044533
3258 0.00267241
3261 0.0043838
3264 0.0074449
3267 0.00611562
3270 0.0075137
3273 0.00464054
3276 0.00775847
3279 0.00873801
3282 0.00561605
3285 0.00254498
3288 0.00165218
3291 0.00212919
3294 0.00194775
3297 0.00227406
3300 0.00236601
3303 0.00371781
3306 0.00217021
3309 0.00349139
3312 0.00385346
3315 0.0044453
3318 0.000318139
3321 0.00362915
3324 0.00316392
3327 0.00687699
3330 0.00652674
3333 0.00575356
3336 0.00262717
3339 0.00476313
3342 0.00716772
3345 0.00820218
3348 0.0104657
3351 0.00983549
3354 0.00590521
3357 0.00636154
3360 0.00359214
3363 0.00616425
3366 0.00437551
3369 0.00447585
3372 0.00406282
3375 0.00480882
3378 0.00347964
3381 0.00472388
3384 0.00684827
3387 0.0055739
3390 0.00542162
3393 0.00650117
3396 0.00634188
3399 0.00703311
3402 0.00483523
3405 0.00522093
3408 0.00514961
3411 0.00457196
3414 0.00480921
3417 0.00623986
3420 0.00939794
3423 0.00549611
3426 0.00435039
3429 0.0044678
3432 0.00781687
3435 0.00805285
3438 0.00697527
3441 0.0104769
3444 0.010338
3447 0.013504
3450 0.0138815
3453 0.0181126
3456 0.0147913
3459 0.0135189
3462 0.0146295
3465 0.0153284
3468 0.0165167
3471 0.0117948
3474 0.0124892
3477 0.01405
3480 0.0175661
3483 0.0214668
3486 0.00924093
3487 0.00024579