File: constrainednmf/example_data/BaTiO3_xrd_ramp/BTO_350K_tth.xy
0.000000000000000000e+00 0.000337999
3 0.000421428
6 0.000642951
9 0.00268408
12 0.0124929
15 0.014289
18 0.0135635
21 0.0128041
24 0.0131889
27 0.0131034
30 0.0106867
33 0.00424315
36 0.00297536
39 0.002962
42 0.00303903
45 0.00310379
48 0.00303561
51 0.00298283
54 0.00307528
57 0.00307927
60 0.00316195
63 0.00316896
66 0.00319713
69 0.00322867
72 0.00324284
75 0.00334238
78 0.00345185
81 0.00362076
84 0.00365912
87 0.00364905
90 0.00360283
93 0.00351496
96 0.00346447
99 0.00343964
102 0.00339041
105 0.0034186
108 0.00341218
111 0.00334423
114 0.00337119
117 0.0032911
120 0.00324183
123 0.00322812
126 0.00315538
129 0.003223
132 0.00323491
135 0.00317885
138 0.00310268
141 0.00307081
144 0.00297279
147 0.00305329
150 0.00296998
153 0.00295715
156 0.00288775
159 0.00284729
162 0.00287177
165 0.00280501
168 0.00280223
171 0.0027623
174 0.00272392
177 0.00263041
180 0.00255412
183 0.00259451
186 0.00251051
189 0.00244144
192 0.00251723
195 0.00244023
198 0.00242971
201 0.00238612
204 0.00236759
207 0.00225932
210 0.00231946
213 0.00234577
216 0.00228969
219 0.00223095
222 0.00221047
225 0.0022133
228 0.00223225
231 0.00227093
234 0.00229745
237 0.00233068
240 0.00214733
243 0.00221285
246 0.00225143
249 0.00233457
252 0.00224857
255 0.00227712
258 0.00229721
261 0.00223815
264 0.00238431
267 0.00239558
270 0.00240321
273 0.00243335
276 0.00248265
279 0.00264316
282 0.00271045
285 0.00282359
288 0.00279071
291 0.00269891
294 0.00267771
297 0.00248686
300 0.00230642
303 0.00227178
306 0.00214769
309 0.00218574
312 0.00213318
315 0.00212339
318 0.00213974
321 0.00238691
324 0.00320016
327 0.00677406
330 0.0364891
333 0.104879
336 0.067297
339 0.00875463
342 0.00290829
345 0.00192255
348 0.0016984
351 0.00139748
354 0.00134152
357 0.00248164
360 0.00437715
363 0.00343593
366 0.0018402
369 0.00099466
372 0.000734684
375 0.000751288
378 0.000684073
381 0.000696731
384 0.000804027
387 0.000761927
390 0.000670147
393 0.000743483
396 0.000875389
399 0.000710578
402 0.000701866
405 0.000886563
408 0.000910628
411 0.0012302
414 0.00130557
417 0.00132198
420 0.00120307
423 0.00128828
426 0.00151897
429 0.00123801
432 0.0012764
435 0.00124518
438 0.00142295
441 0.00179756
444 0.00211226
447 0.00249907
450 0.00319803
453 0.00386165
456 0.00489172
459 0.0066856
462 0.0102479
465 0.0213481
468 0.0866588
471 0.701262
474 0.78921
477 0.128051
480 0.0232864
483 0.0101938
486 0.00644056
489 0.0045424
492 0.00342564
495 0.00262361
498 0.00200287
501 0.00155992
504 0.00166565
507 0.00215548
510 0.00253472
513 0.00214641
516 0.00165463
519 0.00101672
522 0.000658235
525 0.000452333
528 0.000248819
531 0.000129992
534 0.000121653
537 0.000149589
540 0.000254468
543 0.000218531
546 0.000242749
549 0.000381206
552 0.000687474
555 0.000654485
558 0.000853071
561 0.00113162
564 0.00153719
567 0.00240017
570 0.00389684
573 0.010439
576 0.0657188
579 0.388115
582 0.116189
585 0.0137621
588 0.00482495
591 0.00265678
594 0.00182458
597 0.00143003
600 0.000962757
603 0.00090355
606 0.000369787
609 0.000474837
612 0.000761998
615 0.000812643
618 0.000757724
621 0.00129498
624 0.0021686
627 0.00186396
630 0.00150364
633 0.00159669
636 0.00166155
639 0.00151571
642 0.00152263
645 0.0019047
648 0.00253521
651 0.00350459
654 0.00558935
657 0.0091027
660 0.020339
663 0.0790102
666 0.190902
669 0.241836
672 0.335469
675 0.0584543
678 0.0149662
681 0.00710743
684 0.00434044
687 0.00343468
690 0.00363164
693 0.00274534
696 0.00201535
699 0.00153051
702 0.00107487
705 0.000786005
708 0.00103759
711 0.000818427
714 0.000510622
717 0.000642152
720 0.00094691
723 0.00103066
726 0.000800335
729 0.00106132
732 0.00141935
735 0.00211781
738 0.0038941
741 0.0103901
744 0.0472466
747 0.0877913
750 0.126399
753 0.0358666
756 0.00683901
759 0.00266902
762 0.00164081
765 0.000980749
768 0.000775296
771 0.00108489
774 0.00100576
777 0.000954491
780 0.00115411
783 0.00122788
786 0.00176184
789 0.00164543
792 0.00198941
795 0.00277045
798 0.00311867
801 0.00418484
804 0.00552919
807 0.00851226
810 0.0153506
813 0.0407193
816 0.191679
819 0.466561
822 0.516604
825 0.0879853
828 0.0209778
831 0.00991428
834 0.00606
837 0.0043067
840 0.00312523
843 0.00235716
846 0.00200112
849 0.00168446
852 0.00129914
855 0.00133245
858 0.00105754
861 0.000948009
864 0.000645249
867 0.000690808
870 0.000509662
873 0.00053835
876 0.000551927
879 0.000664596
882 0.000754556
885 0.000778901
888 0.00076252
891 0.000749285
894 0.000333244
897 0.000620583
900 0.000247813
903 0.000451008
906 0.000287479
909 0.000558683
912 0.000259057
915 0.000526825
918 0.000641948
921 0.000817726
924 0.00143199
927 0.00162562
930 0.00240594
933 0.00406766
936 0.00747359
939 0.0168804
942 0.0634369
945 0.287222
948 0.275996
951 0.149592
954 0.0282605
957 0.00909448
960 0.00485119
963 0.00303721
966 0.00219098
969 0.00161972
972 0.00162186
975 0.00138554
978 0.00187204
981 0.00136972
984 0.00121084
987 0.00130643
990 0.00127125
993 0.00273134
996 0.00644835
999 0.0177449
1002 0.0565183
1005 0.0981731
1008 0.054655
1011 0.0114448
1014 0.00345313
1017 0.00190838
1020 0.00121285
1023 0.00127688
1026 0.00111731
1029 0.00114412
1032 0.00120313
1035 0.00184453
1038 0.00226113
1041 0.00363577
1044 0.00577778
1047 0.0112073
1050 0.0307543
1053 0.105651
1056 0.114235
1059 0.136752
1062 0.26263
1065 0.0825583
1068 0.0195015
1071 0.0080929
1074 0.00487958
1077 0.00330777
1080 0.00246152
1083 0.00252664
1086 0.0020137
1089 0.00201728
1092 0.00205901
1095 0.00277697
1098 0.00442797
1101 0.00973621
1104 0.0340163
1107 0.0709709
1110 0.0687062
1113 0.138799
1116 0.0582235
1119 0.01173
1122 0.00441147
1125 0.00208408
1128 0.00136965
1131 0.00130177
1134 0.00100971
1137 0.000872415
1140 0.000685926
1143 0.0010919
1146 0.00122462
1149 0.00251691
1152 0.00461328
1155 0.0141353
1158 0.0752216
1161 0.176114
1164 0.0415922
1167 0.00801219
1170 0.00307699
1173 0.00135214
1176 0.00127105
1179 0.000848492
1182 0.000509681
1185 0.000511348
1188 0.000966875
1191 0.000863363
1194 0.00145731
1197 0.00300388
1200 0.00605022
1203 0.0211507
1206 0.0331367
1209 0.0403919
1212 0.0303107
1215 0.00834456
1218 0.00339755
1221 0.00267293
1224 0.00224198
1227 0.00258879
1230 0.00270375
1233 0.00363894
1236 0.00468526
1239 0.00734336
1242 0.0120281
1245 0.0272927
1248 0.0954628
1251 0.228577
1254 0.308946
1257 0.254477
1260 0.0639007
1263 0.0180952
1266 0.00883894
1269 0.00524415
1272 0.00359775
1275 0.00253021
1278 0.00166297
1281 0.00126878
1284 0.00108077
1287 0.000604458
1290 0.000317352
1293 3.13423e-05
1296 0.000192512
1299 0.000336054
1302 0.000185702
1305 0.000343055
1308 0.000347555
1311 0.000120261
1314 0.000265702
1317 0.000578555
1320 0.000587158
1323 0.00123331
1326 0.00234496
1329 0.00631813
1332 0.018667
1335 0.0174158
1338 0.0123576
1341 0.019271
1344 0.0471579
1347 0.0253406
1350 0.00659218
1353 0.0028741
1356 0.0016218
1359 0.0016005
1362 0.00134835
1365 0.00164766
1368 0.00272621
1371 0.00651599
1374 0.0165884
1377 0.0219422
1380 0.0385636
1383 0.0593628
1386 0.0458766
1389 0.0143019
1392 0.00465365
1395 0.00295701
1398 0.00279037
1401 0.00331686
1404 0.00382421
1407 0.00587734
1410 0.0122445
1413 0.03316
1416 0.062433
1419 0.0817712
1422 0.0944323
1425 0.1382
1428 0.0842059
1431 0.0204064
1434 0.00847093
1437 0.00513758
1440 0.00390634
1443 0.00320686
1446 0.00309546
1449 0.00351292
1452 0.00558295
1455 0.0129734
1458 0.0460633
1461 0.0605689
1464 0.0424027
1467 0.0211228
1470 0.00613309
1473 0.00378898
1476 0.00308691
1479 0.00317986
1482 0.00453834
1485 0.00654826
1488 0.0130477
1491 0.0379575
1494 0.0682156
1497 0.0541344
1500 0.0916894
1503 0.120252
1506 0.0540817
1509 0.0150351
1512 0.00685682
1515 0.00476886
1518 0.00364925
1521 0.00355331
1524 0.00436801
1527 0.00881656
1530 0.022651
1533 0.0233334
1536 0.0250154
1539 0.0452783
1542 0.0273817
1545 0.00706339
1548 0.0031468
1551 0.00196651
1554 0.0020125
1557 0.00222731
1560 0.00311084
1563 0.00501319
1566 0.0113554
1569 0.0388266
1572 0.104172
1575 0.0787684
1578 0.0239261
1581 0.0068982
1584 0.00326891
1587 0.00219371
1590 0.001579
1593 0.00126304
1596 0.00148909
1599 0.000999248
1602 0.00132161
1605 0.000583546
1608 0.00113679
1611 0.00101494
1614 0.00129615
1617 0.00109296
1620 0.00158958
1623 0.00205225
1626 0.00292036
1629 0.00452476
1632 0.00756455
1635 0.0207598
1638 0.0520963
1641 0.05429
1644 0.090762
1647 0.0904439
1650 0.0224659
1653 0.00826923
1656 0.00499086
1659 0.00385435
1662 0.00392945
1665 0.00437779
1668 0.00636341
1671 0.0108529
1674 0.0156181
1677 0.0170247
1680 0.0161148
1683 0.0159547
1686 0.00723564
1689 0.00537552
1692 0.00655476
1695 0.00939727
1698 0.0191285
1701 0.0385109
1704 0.0591067
1707 0.094163
1710 0.113084
1713 0.122632
1716 0.117288
1719 0.0387397
1722 0.0145766
1725 0.00910523
1728 0.00701976
1731 0.00996599
1734 0.0161092
1737 0.0141475
1740 0.0148464
1743 0.0277872
1746 0.030621
1749 0.0291026
1752 0.00936932
1755 0.0034905
1758 0.00234988
1761 0.00125523
1764 0.000978943
1767 0.000850592
1770 0.000515067
1773 0.000758838
1776 0.000628951
1779 0.000877277
1782 0.000612513
1785 0.000522605
1788 0.00126299
1791 0.00195784
1794 0.00326553
1797 0.00731031
1800 0.0125948
1803 0.0227561
1806 0.0302781
1809 0.0376638
1812 0.0263437
1815 0.00995887
1818 0.00517022
1821 0.00580023
1824 0.00846697
1827 0.0206464
1830 0.0404006
1833 0.0317361
1836 0.0265693
1839 0.0461197
1842 0.0832257
1845 0.0460689
1848 0.0131358
1851 0.00545446
1854 0.00287453
1857 0.00196743
1860 0.000990743
1863 0.000571262
1866 0.000638459
1869 0.000287966
1872 0.000498465
1875 0.000135012
1878 1.94919e-05
1881 0.000540412
1884 0.00116696
1887 0.0023615
1890 0.00441587
1893 0.01245
1896 0.0283009
1899 0.0188427
1902 0.0145766
1905 0.0153036
1908 0.00551445
1911 0.00253031
1914 0.00209846
1917 0.0032127
1920 0.00699583
1923 0.0106924
1926 0.0153002
1929 0.0141069
1932 0.0176543
1935 0.0104969
1938 0.00381997
1941 0.00350896
1944 0.00485199
1947 0.00992939
1950 0.0222023
1953 0.0330257
1956 0.0540914
1959 0.0711203
1962 0.0418783
1965 0.0213447
1968 0.00802049
1971 0.00544757
1974 0.00609546
1977 0.0123006
1980 0.0206876
1983 0.0176644
1986 0.0233269
1989 0.0308336
1992 0.0252853
1995 0.0103731
1998 0.00607923
2001 0.00727916
2004 0.00922729
2007 0.0118954
2010 0.0279977
2013 0.0529238
2016 0.0422323
2019 0.0398443
2022 0.0211214
2025 0.00812231
2028 0.00558322
2031 0.00615882
2034 0.00468193
2037 0.00343487
2040 0.00317179
2043 0.0039856
2046 0.00692663
2049 0.0100664
2052 0.00703714
2055 0.00864569
2058 0.0157982
2061 0.0236117
2064 0.0362183
2067 0.0337901
2070 0.0432086
2073 0.069916
2076 0.0603319
2079 0.0231459
2082 0.00847241
2085 0.00442116
2088 0.00312414
2091 0.00235558
2094 0.00208543
2097 0.00165523
2100 0.00163325
2103 0.00185363
2106 0.0024382
2109 0.00488619
2112 0.0111517
2115 0.0139444
2118 0.00957146
2121 0.00799905
2124 0.0108305
2127 0.0224193
2130 0.0336745
2133 0.0185589
2136 0.00828634
2139 0.00929384
2142 0.0101981
2145 0.0114442
2148 0.0160621
2151 0.0203152
2154 0.0196149
2157 0.0188715
2160 0.00936526
2163 0.00542033
2166 0.00699864
2169 0.0138692
2172 0.0289489
2175 0.0358378
2178 0.0316416
2181 0.0260337
2184 0.0245856
2187 0.00938244
2190 0.00439702
2193 0.00364098
2196 0.00604016
2199 0.00888846
2202 0.00923353
2205 0.0145753
2208 0.00971379
2211 0.00397751
2214 0.00424248
2217 0.00877743
2220 0.0125748
2223 0.00968924
2226 0.00773173
2229 0.0109975
2232 0.0244641
2235 0.0267337
2238 0.00987731
2241 0.00519606
2244 0.00605465
2247 0.00773688
2250 0.0106846
2253 0.012769
2256 0.0132543
2259 0.0132806
2262 0.00830353
2265 0.00658932
2268 0.011838
2271 0.0168237
2274 0.0123114
2277 0.0111402
2280 0.0187381
2283 0.0305889
2286 0.0255182
2289 0.010528
2292 0.00362792
2295 0.00205118
2298 0.000836403
2301 0.000406181
2304 0.00031917
2307 6.91253e-05
2310 0.000515894
2313 0.000489653
2316 0.000583535
2319 0.0010223
2322 0.00207077
2325 0.00504316
2328 0.012381
2331 0.0100583
2334 0.00360862
2337 0.00289456
2340 0.00316938
2343 0.00508984
2346 0.00595099
2349 0.00451954
2352 0.00555598
2355 0.00910443
2358 0.0126253
2361 0.0113591
2364 0.0109083
2367 0.0112851
2370 0.0169073
2373 0.0321007
2376 0.041445
2379 0.0431542
2382 0.0368981
2385 0.0271737
2388 0.0148625
2391 0.00960575
2394 0.00930365
2397 0.0123024
2400 0.0115685
2403 0.00973476
2406 0.0133376
2409 0.0138364
2412 0.00863074
2415 0.0104278
2418 0.0122464
2421 0.0107848
2424 0.0143927
2427 0.0155999
2430 0.0144776
2433 0.0140087
2436 0.00881051
2439 0.00762807
2442 0.00834053
2445 0.00731894
2448 0.00961737
2451 0.0109993
2454 0.015057
2457 0.0176704
2460 0.0178436
2463 0.018379
2466 0.0212881
2469 0.0253964
2472 0.0269426
2475 0.0384805
2478 0.0392371
2481 0.0186602
2484 0.00806566
2487 0.00498021
2490 0.00374437
2493 0.00387624
2496 0.00378113
2499 0.00415481
2502 0.00381754
2505 0.00661426
2508 0.0131719
2511 0.0189857
2514 0.0178494
2517 0.0242294
2520 0.0286107
2523 0.0259445
2526 0.014053
2529 0.00740119
2532 0.005339
2535 0.00553546
2538 0.00736924
2541 0.00761022
2544 0.00746183
2547 0.00709254
2550 0.00704755
2553 0.0049873
2556 0.00395407
2559 0.00377478
2562 0.00505857
2565 0.0089751
2568 0.0117414
2571 0.011503
2574 0.00873205
2577 0.00693783
2580 0.00848997
2583 0.0108075
2586 0.0123391
2589 0.0148918
2592 0.0110678
2595 0.00503212
2598 0.00244444
2601 0.00159547
2604 0.00146654
2607 0.00106689
2610 0.00148955
2613 0.00156839
2616 0.00205261
2619 0.00402762
2622 0.00625653
2625 0.00706274
2628 0.00780253
2631 0.0095796
2634 0.00928445
2637 0.0117893
2640 0.0145891
2643 0.0171666
2646 0.0194902
2649 0.0198893
2652 0.0208547
2655 0.0272565
2658 0.0207682
2661 0.0080378
2664 0.00391569
2667 0.00256239
2670 0.00138892
2673 0.00149836
2676 0.00162302
2679 0.00169467
2682 0.0010676
2685 0.00102952
2688 0.000000000000000000e+00
2691 0.00111612
2694 0.00236653
2697 0.0033251
2700 0.0049686
2703 0.00493058
2706 0.00567629
2709 0.00633953
2712 0.00771241
2715 0.00791935
2718 0.0110483
2721 0.012766
2724 0.0133824
2727 0.011157
2730 0.0113258
2733 0.0177668
2736 0.0222192
2739 0.0213702
2742 0.0203556
2745 0.0141241
2748 0.00659137
2751 0.00391298
2754 0.00469273
2757 0.00585951
2760 0.00830982
2763 0.00820596
2766 0.00563234
2769 0.00654368
2772 0.0091744
2775 0.0111323
2778 0.0169438
2781 0.0175887
2784 0.0152619
2787 0.0102076
2790 0.00578525
2793 0.00344958
2796 0.00314257
2799 0.00628887
2802 0.0079829
2805 0.00805847
2808 0.00580535
2811 0.00848343
2814 0.0114676
2817 0.0124445
2820 0.0102146
2823 0.00911578
2826 0.0043674
2829 0.00245726
2832 0.00131108
2835 0.000630847
2838 0.000802761
2841 0.00287322
2844 0.00421541
2847 0.00267921
2850 0.00319159
2853 0.00570748
2856 0.00516536
2859 0.00496263
2862 0.00839034
2865 0.0115136
2868 0.0079273
2871 0.00457391
2874 0.00457161
2877 0.00364354
2880 0.00519614
2883 0.00862175
2886 0.0125993
2889 0.0131068
2892 0.0109173
2895 0.0107654
2898 0.0147574
2901 0.0209227
2904 0.0236048
2907 0.0171208
2910 0.0102993
2913 0.00679274
2916 0.0073883
2919 0.0074034
2922 0.00516054
2925 0.00535705
2928 0.00499159
2931 0.00629756
2934 0.00852347
2937 0.0060776
2940 0.00517993
2943 0.00607022
2946 0.00509749
2949 0.00302072
2952 0.00297314
2955 0.00493543
2958 0.00605887
2961 0.00515984
2964 0.00647253
2967 0.00617364
2970 0.00588185
2973 0.00611898
2976 0.00661089
2979 0.00588673
2982 0.0050202
2985 0.0051764
2988 0.00186499
2991 0.000946267
2994 9.67031e-05
2997 0.00137568
3000 0.00148819
3003 0.00298463
3006 0.00222461
3009 0.0015076
3012 0.00258402
3015 0.00369416
3018 0.00548079
3021 0.00623309
3024 0.00590983
3027 0.00601159
3030 0.00471155
3033 0.00550564
3036 0.00849621
3039 0.00867583
3042 0.00680992
3045 0.0045832
3048 0.00444456
3051 0.00357727
3054 0.00538092
3057 0.00825493
3060 0.0085292
3063 0.00883119
3066 0.00688096
3069 0.00646961
3072 0.0083201
3075 0.0084842
3078 0.0115948
3081 0.00858336
3084 0.005892
3087 0.00541257
3090 0.00717608
3093 0.0100119
3096 0.0127285
3099 0.0103978
3102 0.00620065
3105 0.00498951
3108 0.00621267
3111 0.00613676
3114 0.0070008
3117 0.00978094
3120 0.0102523
3123 0.0123272
3126 0.0136421
3129 0.0120068
3132 0.0126275
3135 0.0124036
3138 0.0091595
3141 0.00551266
3144 0.00303183
3147 0.0012495
3150 0.00184286
3153 0.00339248
3156 0.00370929
3159 0.00633594
3162 0.00800172
3165 0.00918887
3168 0.00864378
3171 0.00632674
3174 0.00612246
3177 0.00629167
3180 0.00682057
3183 0.00856699
3186 0.010797
3189 0.0117634
3192 0.0110208
3195 0.00915844
3198 0.0111443
3201 0.0159968
3204 0.0154644
3207 0.0143195
3210 0.00957535
3213 0.00442007
3216 0.00447057
3219 0.00287595
3222 0.00408766
3225 0.00647448
3228 0.00496812
3231 0.00382164
3234 0.00306685
3237 0.00316351
3240 0.00320259
3243 0.00278287
3246 0.0046745
3249 0.00225149
3252 0.00358137
3255 0.0041791
3258 0.00759135
3261 0.00627924
3264 0.00662892
3267 0.0067613
3270 0.00871576
3273 0.00579633
3276 0.00896556
3279 0.00835383
3282 0.00555883
3285 0.00341273
3288 0.00274793
3291 0.00137659
3294 0.00352489
3297 0.0031055
3300 0.00316991
3303 0.00115603
3306 0.00377746
3309 0.00484026
3312 0.00661627
3315 0.00549702
3318 0.00323112
3321 0.00557948
3324 0.00715388
3327 0.00619441
3330 0.00600878
3333 0.00666607
3336 0.00765062
3339 0.0067927
3342 0.00694611
3345 0.00884987
3348 0.0103309
3351 0.00903463
3354 0.00867108
3357 0.00590208
3360 0.00571027
3363 0.00678812
3366 0.00756001
3369 0.00315136
3372 0.0051625
3375 0.00523229
3378 0.00457359
3381 0.00578167
3384 0.00633158
3387 0.00710886
3390 0.00698241
3393 0.00615972
3396 0.00519162
3399 0.00822282
3402 0.00992821
3405 0.00941132
3408 0.00437221
3411 0.00154859
3414 0.00522259
3417 0.00248656
3420 0.00703073
3423 0.00558737
3426 6.77547e-05
3429 0.00255133
3432 0.00790291
3435 0.00157915
3438 0.00558256
3441 0.00820487
3444 0.00673012
3447 0.00675378
3450 0.0107094
3453 0.00970717
3456 0.00744449
3459 0.00818569
3462 0.0135918
3465 0.00938362
3468 0.00854333
3471 0.00511025
3474 0.0116163
3477 0.000346004
3480 0.0177486
3483 0.00635089
3486 0.0257805
3487 0.0354679