File: constrainednmf/example_data/BaTiO3_xrd_ramp/BTO_365K_tth.xy
0.000000000000000000e+00 0.000887986
3 0.00092014
6 0.00111318
9 0.0031018
12 0.0128176
15 0.0146888
18 0.0139172
21 0.0131682
24 0.0135614
27 0.0134386
30 0.0108998
33 0.00450112
36 0.0032307
39 0.0032245
42 0.0033146
45 0.00334275
48 0.00327319
51 0.00328172
54 0.00333828
57 0.00337958
60 0.00338517
63 0.00347046
66 0.00348344
69 0.00351052
72 0.003563
75 0.00363275
78 0.00372271
81 0.00390719
84 0.00400035
87 0.00403641
90 0.00400085
93 0.00390674
96 0.00388448
99 0.00385187
102 0.0038537
105 0.00386538
108 0.00386754
111 0.00389842
114 0.00386778
117 0.00388258
120 0.00387197
123 0.00378893
126 0.0037007
129 0.00382798
132 0.00388722
135 0.00384651
138 0.00379044
141 0.00375526
144 0.00380166
147 0.00376176
150 0.00371355
153 0.00369361
156 0.00370446
159 0.00368024
162 0.00367054
165 0.00367587
168 0.00364522
171 0.00360465
174 0.00363716
177 0.00360567
180 0.00352545
183 0.00350165
186 0.00352292
189 0.00345259
192 0.00354051
195 0.00339859
198 0.00341515
201 0.00332269
204 0.00338754
207 0.00335129
210 0.0032902
213 0.00330401
216 0.00336097
219 0.00333006
222 0.00327047
225 0.0033778
228 0.00332831
231 0.00336471
234 0.00331821
237 0.00330961
240 0.00328798
243 0.00337174
246 0.0033663
249 0.00338013
252 0.00342367
255 0.00329698
258 0.00349508
261 0.00347584
264 0.0034319
267 0.00347009
270 0.00357901
273 0.00355088
276 0.00362096
279 0.003728
282 0.00382051
285 0.00376566
288 0.00389563
291 0.00381208
294 0.00385022
297 0.00359853
300 0.00350139
303 0.00333494
306 0.00322605
309 0.00319812
312 0.00318157
315 0.00317412
318 0.00323601
321 0.00352415
324 0.004155
327 0.00780647
330 0.0369272
333 0.107263
336 0.0663945
339 0.00959079
342 0.00394041
345 0.00282746
348 0.00254861
351 0.00228083
354 0.00234701
357 0.00361596
360 0.00544681
363 0.00435138
366 0.00278808
369 0.00200043
372 0.00159791
375 0.00157193
378 0.00158324
381 0.00173961
384 0.00165491
387 0.00171908
390 0.00159797
393 0.00167486
396 0.00164114
399 0.00164549
402 0.00170744
405 0.00161919
408 0.00166798
411 0.00200767
414 0.00217459
417 0.00208934
420 0.00187735
423 0.00221659
426 0.00233829
429 0.00196875
432 0.00202439
435 0.00213246
438 0.00210806
441 0.00266959
444 0.00296298
447 0.00324024
450 0.0038608
453 0.0044252
456 0.00549756
459 0.007451
462 0.0108889
465 0.0221179
468 0.0876839
471 0.705716
474 0.777685
477 0.12287
480 0.0234773
483 0.010807
486 0.00708403
489 0.00516926
492 0.00413158
495 0.00326883
498 0.00271785
501 0.00226316
504 0.00242884
507 0.00293426
510 0.00322517
513 0.00269657
516 0.00241567
519 0.0016015
522 0.0011977
525 0.00101033
528 0.000975695
531 0.000946396
534 0.00078982
537 0.000995621
540 0.000947599
543 0.000960754
546 0.000785951
549 0.000932327
552 0.00116714
555 0.00119117
558 0.00153517
561 0.00173053
564 0.00228584
567 0.00299789
570 0.0046944
573 0.0111183
576 0.0676995
579 0.389452
582 0.112212
585 0.0141814
588 0.00526104
591 0.00328922
594 0.00234341
597 0.00208377
600 0.00176602
603 0.0014021
606 0.00122856
609 0.00112325
612 0.00124692
615 0.00140262
618 0.00128811
621 0.00177097
624 0.00274443
627 0.00241412
630 0.00220447
633 0.00218179
636 0.00212436
639 0.00224438
642 0.00224371
645 0.00268393
648 0.00306262
651 0.00433324
654 0.00628227
657 0.00976932
660 0.0205443
663 0.0763616
666 0.191955
669 0.25289
672 0.323125
675 0.055041
678 0.0151869
681 0.00766429
684 0.00517926
687 0.00443342
690 0.0043744
693 0.00328364
696 0.00246607
699 0.00194307
702 0.00177877
705 0.00166044
708 0.00150118
711 0.00127984
714 0.00137707
717 0.00147824
720 0.00131042
723 0.00172907
726 0.00173849
729 0.00183714
732 0.0020905
735 0.00259888
738 0.00448408
741 0.0108988
744 0.0467486
747 0.0905556
750 0.126568
753 0.0338195
756 0.00724509
759 0.00325844
762 0.00220201
765 0.0016896
768 0.00163333
771 0.00166741
774 0.00170407
777 0.00174698
780 0.0017563
783 0.00204627
786 0.00223071
789 0.0023864
792 0.0027547
795 0.00334405
798 0.00381305
801 0.00484445
804 0.00615041
807 0.00913835
810 0.0158981
813 0.0416686
816 0.190584
819 0.478595
822 0.498729
825 0.0827029
828 0.0209026
831 0.0100916
834 0.00678512
837 0.00527676
840 0.00351461
843 0.00313088
846 0.00277984
849 0.00216621
852 0.00182775
855 0.0015117
858 0.00166747
861 0.00169969
864 0.0013611
867 0.00120698
870 0.00110612
873 0.00134343
876 0.00111389
879 0.0012215
882 0.00159177
885 0.00133864
888 0.00127234
891 0.00106921
894 0.00102844
897 0.000879799
900 0.00100778
903 0.0009818
906 0.0010324
909 0.00086227
912 0.00121001
915 0.000983317
918 0.00111974
921 0.00146017
924 0.00180509
927 0.00235506
930 0.00299938
933 0.00470814
936 0.00799373
939 0.0173688
942 0.0644095
945 0.288951
948 0.278309
951 0.141141
954 0.0269367
957 0.00922792
960 0.00503003
963 0.00349914
966 0.00262561
969 0.00224794
972 0.00201443
975 0.00225004
978 0.00218873
981 0.00186034
984 0.00177948
987 0.00169137
990 0.00227998
993 0.00350866
996 0.00693867
999 0.0184338
1002 0.0578948
1005 0.0996778
1008 0.0528382
1011 0.0111108
1014 0.0039605
1017 0.00230957
1020 0.00191653
1023 0.00142376
1026 0.00142952
1029 0.00148592
1032 0.00213669
1035 0.00269053
1038 0.00297201
1041 0.00425737
1044 0.00653515
1047 0.0115148
1050 0.0303156
1053 0.102108
1056 0.117025
1059 0.144853
1062 0.260518
1065 0.075005
1068 0.0191262
1071 0.00848671
1074 0.00523481
1077 0.00405091
1080 0.00282412
1083 0.00278126
1086 0.00265304
1089 0.00231103
1092 0.0027499
1095 0.00359972
1098 0.00519478
1101 0.0103139
1104 0.0328446
1107 0.0715681
1110 0.0719843
1113 0.141179
1116 0.0525673
1119 0.0114543
1122 0.00503845
1125 0.00240294
1128 0.00159001
1131 0.00162023
1134 0.00116413
1137 0.00117269
1140 0.00111481
1143 0.0012827
1146 0.00190986
1149 0.00264074
1152 0.0050906
1155 0.0150315
1158 0.0784146
1161 0.173978
1164 0.0390263
1167 0.00822326
1170 0.0035664
1173 0.00201366
1176 0.00152183
1179 0.00135818
1182 0.00130429
1185 0.001165
1188 0.00135219
1191 0.0017415
1194 0.00214572
1197 0.00310447
1200 0.00672363
1203 0.0212135
1206 0.0340881
1209 0.0414274
1212 0.0296236
1215 0.00840961
1218 0.00382698
1221 0.002829
1224 0.00301493
1227 0.00288895
1230 0.00350567
1233 0.00412304
1236 0.00552795
1239 0.00756692
1242 0.0128304
1245 0.0272468
1248 0.0943146
1251 0.230788
1254 0.316792
1257 0.244069
1260 0.0583148
1263 0.018007
1266 0.00909304
1269 0.00569336
1272 0.00394514
1275 0.00288306
1278 0.00215721
1281 0.00201192
1284 0.00148386
1287 0.00139593
1290 0.0010235
1293 0.000884846
1296 0.000912788
1299 0.000713717
1302 0.000818208
1305 0.000961993
1308 0.00101636
1311 0.000928529
1314 0.0011447
1317 0.00110952
1320 0.00122057
1323 0.00181754
1326 0.00279234
1329 0.00691908
1332 0.0180725
1335 0.0183696
1338 0.0128289
1341 0.0214458
1344 0.0494011
1347 0.0225758
1350 0.00623375
1353 0.00329589
1356 0.00251185
1359 0.00204735
1362 0.0020013
1365 0.00244832
1368 0.00339853
1371 0.00668405
1374 0.0163255
1377 0.0229443
1380 0.0397914
1383 0.0611661
1386 0.0443975
1389 0.0134409
1392 0.00505301
1395 0.00374189
1398 0.00334695
1401 0.00333241
1404 0.00451876
1407 0.00634552
1410 0.0118813
1413 0.0322533
1416 0.0628999
1419 0.0833414
1422 0.0973002
1425 0.142758
1428 0.075227
1431 0.0193025
1434 0.00925523
1437 0.00576873
1440 0.00426453
1443 0.00392542
1446 0.00392057
1449 0.00389513
1452 0.00616389
1455 0.0138737
1458 0.0466347
1461 0.0608806
1464 0.043399
1467 0.0198874
1470 0.00640236
1473 0.00436418
1476 0.00395662
1479 0.00441014
1482 0.00505225
1485 0.00735634
1488 0.013789
1491 0.0371768
1494 0.0689797
1497 0.0562562
1500 0.0972147
1503 0.119522
1506 0.0482139
1509 0.0141591
1512 0.00722289
1515 0.00489437
1518 0.00413675
1521 0.0042604
1524 0.00494819
1527 0.00949961
1530 0.0229172
1533 0.024025
1536 0.0273451
1539 0.0466728
1542 0.0248737
1545 0.00734005
1548 0.00380383
1551 0.00301757
1554 0.00294633
1557 0.00283203
1560 0.00355361
1563 0.00616523
1566 0.0118563
1569 0.0402354
1572 0.10565
1575 0.0769413
1578 0.0223242
1581 0.00708644
1584 0.00407233
1587 0.00315582
1590 0.00244719
1593 0.00240122
1596 0.00179267
1599 0.00202109
1602 0.00152793
1605 0.00175357
1608 0.00176411
1611 0.00188437
1614 0.00198287
1617 0.00190354
1620 0.00243674
1623 0.00296864
1626 0.00367243
1629 0.00483334
1632 0.00889397
1635 0.020692
1638 0.0520641
1641 0.0563582
1644 0.096506
1647 0.0841754
1650 0.0210589
1653 0.00877829
1656 0.00604694
1659 0.00474999
1662 0.00441863
1665 0.00520683
1668 0.00719617
1671 0.0115388
1674 0.0165352
1677 0.0179518
1680 0.0178666
1683 0.015483
1686 0.00760795
1689 0.00619832
1692 0.00697682
1695 0.0100279
1698 0.0190088
1701 0.0381919
1704 0.0601069
1707 0.0954974
1710 0.116079
1713 0.127408
1716 0.110625
1719 0.0348136
1722 0.0148151
1725 0.0093819
1728 0.00797472
1731 0.0101457
1734 0.0162756
1737 0.0151379
1740 0.0156746
1743 0.0286399
1746 0.0333755
1749 0.0278373
1752 0.00889821
1755 0.00422913
1758 0.00252947
1761 0.00183697
1764 0.00143105
1767 0.00131361
1770 0.00116508
1773 0.00112643
1776 0.00129928
1779 0.00101749
1782 0.00117161
1785 0.00123505
1788 0.00166352
1791 0.00237608
1794 0.00347349
1797 0.0078668
1800 0.0132597
1803 0.0228652
1806 0.030936
1809 0.0383495
1812 0.0251594
1815 0.00963844
1818 0.0054285
1821 0.00570785
1824 0.00904139
1827 0.0197832
1830 0.0401011
1833 0.0330372
1836 0.0273231
1839 0.0503185
1842 0.0842841
1845 0.0409848
1848 0.0121767
1851 0.00555259
1854 0.00336979
1857 0.00223471
1860 0.00151349
1863 0.00108039
1866 0.000966704
1869 0.00080102
1872 0.000874005
1875 0.000380853
1878 0.000583682
1881 0.000966092
1884 0.00142756
1887 0.00201644
1890 0.00462843
1893 0.0132489
1896 0.0292289
1899 0.0192175
1902 0.015691
1905 0.0147657
1908 0.00503467
1911 0.00277541
1914 0.00218921
1917 0.00333307
1920 0.00677936
1923 0.0111472
1926 0.015624
1929 0.0146068
1932 0.018386
1935 0.00996623
1938 0.00419975
1941 0.00377318
1944 0.00530342
1947 0.010404
1950 0.0220666
1953 0.0337567
1956 0.055389
1959 0.0708711
1962 0.040676
1965 0.0191585
1968 0.00802118
1971 0.00525006
1974 0.0066765
1977 0.0122148
1980 0.0207587
1983 0.0183103
1986 0.024587
1989 0.0310525
1992 0.0246384
1995 0.00970992
1998 0.00546222
2001 0.00695939
2004 0.00911239
2007 0.0121745
2010 0.0283183
2013 0.0535648
2016 0.0425413
2019 0.0391326
2022 0.0186874
2025 0.00728674
2028 0.00527149
2031 0.00569757
2034 0.00518833
2037 0.003722
2040 0.00314844
2043 0.00366751
2046 0.00760165
2049 0.0100188
2052 0.00657103
2055 0.00818377
2058 0.014912
2061 0.0238026
2064 0.0356483
2067 0.034441
2070 0.045871
2073 0.0718789
2076 0.0558819
2079 0.0199468
2082 0.00764183
2085 0.00449153
2088 0.00315566
2091 0.0022744
2094 0.001727
2097 0.00176033
2100 0.00158328
2103 0.00201552
2106 0.00235839
2109 0.00510824
2112 0.0106323
2115 0.0142605
2118 0.00955266
2121 0.00773083
2124 0.0111547
2127 0.0241575
2130 0.033444
2133 0.0164271
2136 0.00797342
2139 0.00858724
2142 0.0099949
2145 0.0113078
2148 0.0156218
2151 0.0200765
2154 0.0207658
2157 0.0180061
2160 0.00851563
2163 0.00537322
2166 0.00679889
2169 0.0135084
2172 0.0287442
2175 0.0362426
2178 0.03131
2181 0.0270355
2184 0.0230196
2187 0.00844098
2190 0.0041235
2193 0.00365124
2196 0.00539832
2199 0.00912188
2202 0.00968035
2205 0.0148982
2208 0.00890934
2211 0.00387103
2214 0.00365756
2217 0.00858522
2220 0.0129294
2223 0.00957393
2226 0.0080589
2229 0.012187
2232 0.0264054
2235 0.024445
2238 0.00906074
2241 0.00533347
2244 0.00599889
2247 0.00768083
2250 0.0114931
2253 0.013171
2256 0.0136024
2259 0.0135823
2262 0.00817005
2265 0.00613391
2268 0.0111196
2271 0.0168593
2274 0.0133453
2277 0.0115373
2280 0.0205536
2283 0.0311919
2286 0.0242002
2289 0.00979171
2292 0.00377701
2295 0.00258264
2298 0.00147477
2301 0.00106619
2304 0.000658858
2307 0.000709524
2310 0.000609821
2313 0.000947569
2316 0.00127559
2319 0.00140005
2322 0.00227234
2325 0.00596254
2328 0.0132821
2331 0.00988899
2334 0.00407204
2337 0.00271868
2340 0.00394552
2343 0.00523523
2346 0.00648112
2349 0.00521189
2352 0.00621637
2355 0.0102842
2358 0.0126825
2361 0.0109013
2364 0.0112237
2367 0.0121061
2370 0.0166985
2373 0.0323349
2376 0.0420326
2379 0.0438224
2382 0.0365387
2385 0.0258066
2388 0.0142097
2391 0.00925475
2394 0.00932258
2397 0.0123656
2400 0.0117293
2403 0.0104155
2406 0.0144073
2409 0.013494
2412 0.0086688
2415 0.0101248
2418 0.0126942
2421 0.0119071
2424 0.0146745
2427 0.0154763
2430 0.0153576
2433 0.0133475
2436 0.00930112
2439 0.00880172
2442 0.00876811
2445 0.00819142
2448 0.0101674
2451 0.0119297
2454 0.0147408
2457 0.0164177
2460 0.0174142
2463 0.0185951
2466 0.021593
2469 0.0260908
2472 0.0278074
2475 0.0405687
2478 0.0375719
2481 0.0166545
2484 0.00786209
2487 0.00522595
2490 0.00408907
2493 0.00377877
2496 0.00385079
2499 0.00377422
2502 0.00482219
2505 0.00656693
2508 0.012975
2511 0.0196084
2514 0.0185712
2517 0.0254943
2520 0.0294268
2523 0.0253846
2526 0.0129971
2529 0.00695094
2532 0.00536896
2535 0.00570496
2538 0.00749949
2541 0.00840951
2544 0.00801145
2547 0.0070208
2550 0.00740606
2553 0.00616827
2556 0.00499376
2559 0.00480551
2562 0.0059982
2565 0.00952554
2568 0.0115557
2571 0.0106334
2574 0.00892057
2577 0.00749898
2580 0.00892521
2583 0.0116122
2586 0.0131924
2589 0.0147605
2592 0.010117
2595 0.00487111
2598 0.00220353
2601 0.00159927
2604 0.00226848
2607 0.00180742
2610 0.00195625
2613 0.00149697
2616 0.00208963
2619 0.00428853
2622 0.0069711
2625 0.00707838
2628 0.00890843
2631 0.0094807
2634 0.00955998
2637 0.0111476
2640 0.0141173
2643 0.0171928
2646 0.0199572
2649 0.0191738
2652 0.0209826
2655 0.0271712
2658 0.018571
2661 0.00662475
2664 0.00405572
2667 0.00217931
2670 0.00165699
2673 0.00158738
2676 0.00160277
2679 0.00189002
2682 0.00111426
2685 0.00112929
2688 0.000874257
2691 0.00187506
2694 0.00127194
2697 0.0036284
2700 0.0049998
2703 0.00457151
2706 0.00531126
2709 0.00652721
2712 0.00724708
2715 0.00878223
2718 0.00989132
2721 0.0121615
2724 0.0123687
2727 0.0111082
2730 0.0123103
2733 0.0181973
2736 0.0221444
2739 0.0207581
2742 0.0202431
2745 0.0121452
2748 0.00629309
2751 0.0043358
2754 0.00358103
2757 0.00571123
2760 0.0074101
2763 0.0074275
2766 0.00526018
2769 0.00623218
2772 0.00925527
2775 0.0108193
2778 0.016639
2781 0.0162817
2784 0.0144184
2787 0.00914632
2790 0.00519237
2793 0.00350915
2796 0.00382311
2799 0.00535834
2802 0.00796109
2805 0.00681145
2808 0.00482888
2811 0.00754692
2814 0.0114697
2817 0.0114667
2820 0.0101924
2823 0.00782329
2826 0.00263266
2829 0.000929532
2832 0.000732383
2835 0.00076446
2838 0.000918271
2841 0.00133415
2844 0.00240967
2847 0.00322919
2850 0.00280971
2853 0.00568727
2856 0.00501241
2859 0.00470368
2862 0.00806911
2865 0.0103872
2868 0.00690225
2871 0.00391495
2874 0.0037578
2877 0.00401407
2880 0.00490553
2883 0.00891917
2886 0.0102146
2889 0.0135007
2892 0.0109171
2895 0.010996
2898 0.0155333
2901 0.0213762
2904 0.0221382
2907 0.0147089
2910 0.00875977
2913 0.00583238
2916 0.00709387
2919 0.00637045
2922 0.00526183
2925 0.00481988
2928 0.00491489
2931 0.00580512
2934 0.00710176
2937 0.0050153
2940 0.00447147
2943 0.00538656
2946 0.00506217
2949 0.00300491
2952 0.00354236
2955 0.00484398
2958 0.00604319
2961 0.00614446
2964 0.005822
2967 0.00578884
2970 0.00603266
2973 0.00568873
2976 0.00635639
2979 0.0054387
2982 0.0062727
2985 0.00427221
2988 0.00149731
2991 0.000838666
2994 0.00133028
2997 0.00131996
3000 0.00274663
3003 0.0028398
3006 0.00138823
3009 0.00195428
3012 0.00253047
3015 0.00432422
3018 0.00610249
3021 0.0076309
3024 0.00610419
3027 0.00530304
3030 0.00546441
3033 0.00623982
3036 0.00711661
3039 0.00727028
3042 0.00538034
3045 0.00447517
3048 0.00299857
3051 0.00350769
3054 0.005929
3057 0.00888105
3060 0.00926507
3063 0.00909364
3066 0.00722853
3069 0.00552488
3072 0.00836376
3075 0.0103933
3078 0.0103784
3081 0.00828987
3084 0.00511122
3087 0.00531683
3090 0.00740476
3093 0.0111533
3096 0.0123425
3099 0.00932102
3102 0.00646668
3105 0.00554328
3108 0.00567449
3111 0.00676699
3114 0.00687385
3117 0.00942876
3120 0.00972679
3123 0.0125512
3126 0.0132011
3129 0.0118848
3132 0.0125671
3135 0.0139478
3138 0.00834854
3141 0.00502256
3144 0.00275055
3147 0.0041531
3150 0.00109381
3153 0.00296581
3156 0.00400605
3159 0.00613762
3162 0.00834419
3165 0.0089044
3168 0.00718694
3171 0.00766293
3174 0.00609688
3177 0.00711858
3180 0.00698075
3183 0.00971375
3186 0.0101132
3189 0.0120554
3192 0.0109997
3195 0.0116004
3198 0.0115535
3201 0.0159007
3204 0.0148849
3207 0.0118953
3210 0.00603137
3213 0.00595561
3216 0.00372338
3219 0.00292192
3222 0.00508622
3225 0.00518748
3228 0.00431102
3231 0.00145173
3234 0.00167923
3237 0.00117638
3240 0.00127469
3243 0.00269551
3246 0.00253575
3249 0.00173071
3252 0.00516434
3255 0.00562816
3258 0.00374891
3261 0.00577833
3264 0.00532197
3267 0.00639535
3270 0.00703697
3273 0.00648844
3276 0.00925329
3279 0.00868436
3282 0.00464048
3285 0.00343723
3288 0.00121207
3291 0.00245638
3294 0.00398022
3297 0.00324564
3300 0.000846945
3303 0.000193941
3306 0.00310711
3309 0.00338312
3312 0.00200996
3315 0.00217749
3318 0.00141092
3321 0.00341588
3324 0.00336313
3327 0.0057381
3330 0.00173426
3333 0.00484934
3336 0.0042364
3339 0.00639755
3342 0.008583
3345 0.00997347
3348 0.00897539
3351 0.00678905
3354 0.00752168
3357 0.00260334
3360 0.00574062
3363 0.00406393
3366 0.00503851
3369 0.00508967
3372 0.00694064
3375 0.00490635
3378 0.00396401
3381 0.00484319
3384 0.00571619
3387 0.00422582
3390 0.00544834
3393 0.00761227
3396 0.00459935
3399 0.00528226
3402 0.00789312
3405 0.00372503
3408 0.00732907
3411 0.00360637
3414 0.00506227
3417 0.00615741
3420 0.00480399
3423 0.00487286
3426 0.00458442
3429 0.00232403
3432 0.00878386
3435 0.00653617
3438 0.00643308
3441 0.00715773
3444 0.0108486
3447 0.013975
3450 0.0132254
3453 0.0132619
3456 0.0132698
3459 0.0095019
3462 0.0140458
3465 0.0172335
3468 0.00678296
3471 0.014259
3474 0.0133069
3477 0.0229635
3480 0.0230159
3483 0.000922073
3486 0.0259847
3487 0.00044288