File: constrainednmf/example_data/BaTiO3_xrd_ramp/BTO_170K_tth.xy
0.000000000000000000e+00 0.00115427
3 0.00118794
6 0.00134816
9 0.00297686
12 0.0104468
15 0.0121345
18 0.0116267
21 0.0110122
24 0.0113167
27 0.011305
30 0.00926921
33 0.00414399
36 0.00312151
39 0.00311227
42 0.00319289
45 0.00326878
48 0.00329547
51 0.00323025
54 0.00326189
57 0.0032702
60 0.00334055
63 0.00340757
66 0.00342028
69 0.00341467
72 0.00349005
75 0.00357995
78 0.0036732
81 0.00380391
84 0.00389708
87 0.00394395
90 0.00388682
93 0.0038852
96 0.00383078
99 0.00382842
102 0.00378188
105 0.00380026
108 0.00383259
111 0.00378333
114 0.00380375
117 0.0038217
120 0.00380032
123 0.00378125
126 0.00368335
129 0.00381351
132 0.0038205
135 0.00379106
138 0.00374912
141 0.0037268
144 0.00373875
147 0.00372711
150 0.00374624
153 0.00367565
156 0.00371893
159 0.00361589
162 0.00374002
165 0.00366563
168 0.00362445
171 0.00358463
174 0.00359011
177 0.0035029
180 0.00347732
183 0.00349058
186 0.00349505
189 0.00341877
192 0.00343715
195 0.00336325
198 0.00336376
201 0.00331182
204 0.00328002
207 0.00327327
210 0.00325875
213 0.00323163
216 0.00323239
219 0.00317141
222 0.00317745
225 0.00317259
228 0.00322948
231 0.00322066
234 0.00319065
237 0.00314959
240 0.00319378
243 0.00319126
246 0.00314839
249 0.00323261
252 0.00319701
255 0.00315131
258 0.00319528
261 0.00322976
264 0.00327226
267 0.00325053
270 0.00319697
273 0.00325196
276 0.00327274
279 0.00333025
282 0.0034351
285 0.00340583
288 0.00352818
291 0.00361372
294 0.0035744
297 0.00350173
300 0.00334061
303 0.00321022
306 0.00312245
309 0.00305835
312 0.00315159
315 0.00320999
318 0.00325082
321 0.00338855
324 0.00401388
327 0.00611844
330 0.0222493
333 0.110827
336 0.0672242
339 0.011343
342 0.00815986
345 0.007102
348 0.00299163
351 0.00262059
354 0.00258748
357 0.00312495
360 0.00518751
363 0.00492596
366 0.00334711
369 0.0023272
372 0.00198288
375 0.00186169
378 0.00188231
381 0.0019897
384 0.00226258
387 0.00531015
390 0.00609173
393 0.00203145
396 0.00199966
399 0.00188238
402 0.00186391
405 0.00174975
408 0.00190165
411 0.00197875
414 0.00208684
417 0.0022678
420 0.00208496
423 0.00222009
426 0.0024065
429 0.00198845
432 0.00209281
435 0.00214651
438 0.00230529
441 0.00250823
444 0.00281741
447 0.00326245
450 0.00358369
453 0.00436013
456 0.00509065
459 0.006753
462 0.00952134
465 0.0177963
468 0.0605731
471 0.450714
474 0.931612
477 0.15876
480 0.0272872
483 0.0115892
486 0.00714744
489 0.00545494
492 0.00414538
495 0.00324343
498 0.00269129
501 0.00313021
504 0.00252301
507 0.00260056
510 0.00300416
513 0.00323106
516 0.00262165
519 0.00194309
522 0.00115712
525 0.00115688
528 0.00103321
531 0.000927341
534 0.00102669
537 0.00103385
540 0.000974303
543 0.000960766
546 0.00106649
549 0.00119615
552 0.00122781
555 0.00120281
558 0.0014831
561 0.00170613
564 0.0020845
567 0.00280117
570 0.00402504
573 0.00889004
576 0.0458205
579 0.290693
582 0.190984
585 0.0210679
588 0.00623608
591 0.00387351
594 0.00321988
597 0.00273156
600 0.00202486
603 0.00184605
606 0.0017402
609 0.00159739
612 0.0014428
615 0.00174316
618 0.00163368
621 0.00196864
624 0.00290233
627 0.00294819
630 0.00256739
633 0.00248367
636 0.00260479
639 0.00269779
642 0.00264231
645 0.00362782
648 0.00870385
651 0.00432836
654 0.00544367
657 0.0078732
660 0.0133551
663 0.0309166
666 0.117502
669 0.37327
672 0.258782
675 0.0778988
678 0.0213696
681 0.00919823
684 0.00577815
687 0.00509636
690 0.00434486
693 0.00435583
696 0.00373084
699 0.00826601
702 0.00298201
705 0.00215689
708 0.00209349
711 0.00258873
714 0.0019003
717 0.00176623
720 0.00157096
723 0.00181824
726 0.00201768
729 0.00174579
732 0.00193329
735 0.00253722
738 0.0036869
741 0.0068671
744 0.0210797
747 0.0893235
750 0.135417
753 0.0440871
756 0.0102466
759 0.00393397
762 0.00239102
765 0.00177866
768 0.00150456
771 0.00143135
774 0.00168573
777 0.00238136
780 0.00228507
783 0.0019639
786 0.00188933
789 0.00209466
792 0.00234103
795 0.00252532
798 0.0031293
801 0.00389626
804 0.00524148
807 0.00730276
810 0.0117813
813 0.0254502
816 0.0962391
819 0.41383
822 0.567261
825 0.14391
828 0.0301496
831 0.0119643
834 0.00692133
837 0.00494609
840 0.00388967
843 0.00293179
846 0.00237668
849 0.00212625
852 0.00176036
855 0.00171559
858 0.00149098
861 0.00170342
864 0.00158428
867 0.00129445
870 0.00141953
873 0.00148496
876 0.00134616
879 0.00361796
882 0.00260681
885 0.00155351
888 0.00151585
891 0.00136201
894 0.00130917
897 0.00143547
900 0.00115124
903 0.00107168
906 0.00117008
909 0.00104616
912 0.00117862
915 0.00110994
918 0.00123068
921 0.00161904
924 0.00181511
927 0.00225696
930 0.00318189
933 0.00406546
936 0.00643656
939 0.0128887
942 0.0398701
945 0.15249
948 0.351483
951 0.196772
954 0.0377629
957 0.0121441
960 0.00643571
963 0.00429406
966 0.00332296
969 0.00267428
972 0.00252567
975 0.00277905
978 0.00463682
981 0.00326541
984 0.0026383
987 0.00230179
990 0.00241498
993 0.00308296
996 0.00465397
999 0.010921
1002 0.0394291
1005 0.0980876
1008 0.0757414
1011 0.0176047
1014 0.00624598
1017 0.00321575
1020 0.00230167
1023 0.0019003
1026 0.00193397
1029 0.00194166
1032 0.00198277
1035 0.00254758
1038 0.00269346
1041 0.00352282
1044 0.00485764
1047 0.00765344
1050 0.0142225
1053 0.0336319
1056 0.10258
1059 0.248541
1062 0.21727
1065 0.0930466
1068 0.0353411
1071 0.0130605
1074 0.00679511
1077 0.00450673
1080 0.00328018
1083 0.00292743
1086 0.00279292
1089 0.00269891
1092 0.00313505
1095 0.00499216
1098 0.00463245
1101 0.00638004
1104 0.013111
1107 0.0385213
1110 0.108991
1113 0.13593
1116 0.0651272
1119 0.0225299
1122 0.00775978
1125 0.00384116
1128 0.00238327
1131 0.00153326
1134 0.00146176
1137 0.00132621
1140 0.00147215
1143 0.00178878
1146 0.00229585
1149 0.00256878
1152 0.00434116
1155 0.0112159
1158 0.0484155
1161 0.123301
1164 0.109904
1167 0.0181217
1170 0.00535097
1173 0.00293149
1176 0.0017781
1179 0.00121568
1182 0.00133158
1185 0.00135977
1188 0.00121312
1191 0.00113295
1194 0.00174935
1197 0.00253529
1200 0.00443772
1203 0.0103807
1206 0.0281455
1209 0.0502389
1212 0.0364384
1215 0.0123847
1218 0.00460734
1221 0.003167
1224 0.00279103
1227 0.00282354
1230 0.00286237
1233 0.00365971
1236 0.00427044
1239 0.00623029
1242 0.00977024
1245 0.0178132
1248 0.0466728
1251 0.147433
1254 0.325383
1257 0.326929
1260 0.110335
1263 0.0302196
1266 0.0126273
1269 0.00693021
1272 0.00459172
1275 0.00314042
1278 0.0026304
1281 0.00194712
1284 0.00155053
1287 0.00134863
1290 0.00124763
1293 0.00150071
1296 0.000949733
1299 0.00102032
1302 0.0011459
1305 0.000761173
1308 0.00105202
1311 0.00135774
1314 0.00114197
1317 0.00118125
1320 0.00153835
1323 0.00180463
1326 0.00228476
1329 0.00306214
1332 0.00566608
1335 0.0114674
1338 0.0268692
1341 0.045761
1344 0.0363782
1347 0.0191591
1350 0.0113504
1353 0.00632849
1356 0.00363617
1359 0.00288636
1362 0.00219221
1365 0.00260573
1368 0.00280035
1371 0.00407655
1374 0.00660756
1377 0.0161493
1380 0.0422829
1383 0.0689131
1386 0.0537603
1389 0.0193913
1392 0.00912522
1395 0.00488987
1398 0.00362944
1401 0.00332191
1404 0.00423393
1407 0.00503626
1410 0.00745923
1413 0.0128517
1416 0.0285622
1419 0.0716965
1422 0.144086
1425 0.157767
1428 0.0809255
1431 0.0343074
1434 0.0161216
1437 0.00825937
1440 0.00531163
1443 0.00433354
1446 0.00394503
1449 0.00432711
1452 0.00550317
1455 0.0104598
1458 0.0248525
1461 0.0519742
1464 0.0706929
1467 0.0328576
1470 0.00966364
1473 0.00508966
1476 0.00424074
1479 0.00396308
1482 0.00464752
1485 0.00590819
1488 0.00818079
1491 0.014535
1494 0.0316588
1497 0.0750384
1500 0.131873
1503 0.119029
1506 0.0616092
1509 0.0285069
1512 0.0123535
1515 0.00703002
1518 0.00524418
1521 0.00436305
1524 0.00460158
1527 0.00586122
1530 0.0100436
1533 0.0221908
1536 0.04305
1539 0.0499732
1542 0.0311003
1545 0.0144819
1548 0.00676993
1551 0.00439123
1554 0.0034104
1557 0.00341421
1560 0.00383378
1563 0.00529272
1566 0.00960204
1569 0.028231
1572 0.0595684
1575 0.103758
1578 0.0648281
1581 0.0157244
1584 0.00641373
1587 0.0039738
1590 0.00323489
1593 0.00256721
1596 0.00260421
1599 0.00201397
1602 0.00219917
1605 0.00214974
1608 0.00202007
1611 0.00184474
1614 0.00195187
1617 0.00223873
1620 0.00272407
1623 0.00288778
1626 0.00317078
1629 0.0040402
1632 0.0058262
1635 0.0104338
1638 0.0248789
1641 0.0584766
1644 0.098187
1647 0.10323
1650 0.0471287
1653 0.0177064
1656 0.00832644
1659 0.0053017
1662 0.00467511
1665 0.00436091
1668 0.00486084
1671 0.00735094
1674 0.0133274
1677 0.0224961
1680 0.025074
1683 0.0166362
1686 0.00879242
1689 0.00631089
1692 0.00606173
1695 0.00708626
1698 0.00960946
1701 0.016696
1704 0.0343638
1707 0.0751285
1710 0.141149
1713 0.179778
1716 0.125451
1719 0.0526415
1722 0.0252151
1725 0.0140443
1728 0.0089704
1731 0.00736914
1734 0.00764065
1737 0.0114711
1740 0.0225793
1743 0.0362057
1746 0.0426693
1749 0.0260008
1752 0.0124438
1755 0.00772016
1758 0.00472786
1761 0.00286267
1764 0.00213988
1767 0.00183171
1770 0.00138866
1773 0.00150666
1776 0.00136161
1779 0.00112141
1782 0.00108288
1785 0.00141301
1788 0.0015309
1791 0.00178995
1794 0.00258107
1797 0.00442595
1800 0.00795052
1803 0.0188818
1806 0.033495
1809 0.0459631
1812 0.0372306
1815 0.0155013
1818 0.00779377
1821 0.00572205
1824 0.00572625
1827 0.00820753
1830 0.0140098
1833 0.0288305
1836 0.0573478
1839 0.0838372
1842 0.0762588
1845 0.0455827
1848 0.0253078
1851 0.0130887
1854 0.0065426
1857 0.0036643
1860 0.00252648
1863 0.00164424
1866 0.00142265
1869 0.00116551
1872 0.00108138
1875 0.0010502
1878 0.000791688
1881 0.00142337
1884 0.0010147
1887 0.00162767
1890 0.0034785
1893 0.00718933
1896 0.0138181
1899 0.0252149
1902 0.0321389
1905 0.0223225
1908 0.00801143
1911 0.00363206
1914 0.0025119
1917 0.00262583
1920 0.00422731
1923 0.00809558
1926 0.0150472
1929 0.0215796
1932 0.0232535
1935 0.0142367
1938 0.00678785
1941 0.00446679
1944 0.00416518
1947 0.00637035
1950 0.0113943
1953 0.0262971
1956 0.0486473
1959 0.0719367
1962 0.0788021
1965 0.0356241
1968 0.0149606
1971 0.00770866
1974 0.00599537
1977 0.00675363
1980 0.0113438
1983 0.0209892
1986 0.0336139
1989 0.0395367
1992 0.0300885
1995 0.0160865
1998 0.00868395
2001 0.00566811
2004 0.00596302
2007 0.00965403
2010 0.0204341
2013 0.0358607
2016 0.0553574
2019 0.0664131
2022 0.031472
2025 0.0117411
2028 0.00666797
2031 0.00488841
2034 0.00406581
2037 0.0048934
2040 0.00704586
2043 0.0095009
2046 0.00882245
2049 0.00649194
2052 0.00558705
2055 0.00542876
2058 0.00711976
2061 0.0116809
2064 0.0225643
2067 0.044895
2070 0.0696702
2073 0.0861241
2076 0.0670334
2079 0.0341536
2082 0.0168173
2085 0.00968315
2088 0.00526797
2091 0.00312061
2094 0.00235021
2097 0.00194804
2100 0.00166243
2103 0.00192329
2106 0.00182743
2109 0.00239985
2112 0.00319528
2115 0.00545602
2118 0.0101941
2121 0.0184871
2124 0.0288365
2127 0.032944
2130 0.0250715
2133 0.0164542
2136 0.0117042
2139 0.00890784
2142 0.00823572
2145 0.0118033
2148 0.0194775
2151 0.0263575
2154 0.0311781
2157 0.0237851
2160 0.0121039
2163 0.00765533
2166 0.00751703
2169 0.00941011
2172 0.0158072
2175 0.0288164
2178 0.0427774
2181 0.0515543
2184 0.0377736
2187 0.0162284
2190 0.00732959
2193 0.00406412
2196 0.00471972
2199 0.00780619
2202 0.0105332
2205 0.0143136
2208 0.0150316
2211 0.00837118
2214 0.00429538
2217 0.00377873
2220 0.00536455
2223 0.0092301
2226 0.0172754
2229 0.0253856
2232 0.0289148
2235 0.0222865
2238 0.0138281
2241 0.00931117
2244 0.00707095
2247 0.00723185
2250 0.0106646
2253 0.0153447
2256 0.0188272
2259 0.0197112
2262 0.0119444
2265 0.00691179
2268 0.00611685
2271 0.00817731
2274 0.0138652
2277 0.0239475
2280 0.0338604
2283 0.0363903
2286 0.0268842
2289 0.0162424
2292 0.00966585
2295 0.00492365
2298 0.00307164
2301 0.00193946
2304 0.00101761
2307 0.00112229
2310 0.000887602
2313 0.000904987
2316 0.00111526
2319 0.00110296
2322 0.00227444
2325 0.00488822
2328 0.00582534
2331 0.0103181
2334 0.0140768
2337 0.00544311
2340 0.0030282
2343 0.00362385
2346 0.00469482
2349 0.00781171
2352 0.0109834
2355 0.0130371
2358 0.0126382
2361 0.00994016
2364 0.00804983
2367 0.00997684
2370 0.0153845
2373 0.0283156
2376 0.0413859
2379 0.0562833
2382 0.0669749
2385 0.0393099
2388 0.0180225
2391 0.0121907
2394 0.0113178
2397 0.0134653
2400 0.0171263
2403 0.0195289
2406 0.0191862
2409 0.0135819
2412 0.00900022
2415 0.00787689
2418 0.00900196
2421 0.012639
2424 0.0181802
2427 0.022844
2430 0.0228169
2433 0.0167115
2436 0.0109684
2439 0.00825952
2442 0.0088042
2445 0.0116742
2448 0.0150055
2451 0.0160176
2454 0.014934
2457 0.0118668
2460 0.0112815
2463 0.0147949
2466 0.0236322
2469 0.0363427
2472 0.0485013
2475 0.0561733
2478 0.0456474
2481 0.0258314
2484 0.015182
2487 0.00997687
2490 0.00683325
2493 0.00533506
2496 0.00427253
2499 0.00414553
2502 0.00392364
2505 0.00443786
2508 0.00693373
2511 0.0118295
2514 0.0196757
2517 0.0285302
2520 0.0382263
2523 0.0385167
2526 0.0237372
2529 0.012962
2532 0.00793213
2535 0.00790392
2538 0.00879612
2541 0.00918176
2544 0.0108474
2547 0.00783348
2550 0.00523961
2553 0.00484729
2556 0.00637982
2559 0.00891451
2562 0.0116477
2565 0.0123596
2568 0.0112435
2571 0.00880447
2574 0.00770863
2577 0.00875329
2580 0.012776
2583 0.0164084
2586 0.0197103
2589 0.0202338
2592 0.0138639
2595 0.0076933
2598 0.00486386
2601 0.00349035
2604 0.00234595
2607 0.00224702
2610 0.00161183
2613 0.0020199
2616 0.00234985
2619 0.00356166
2622 0.0049521
2625 0.00863053
2628 0.010188
2631 0.0121488
2634 0.012348
2637 0.00995903
2640 0.0095134
2643 0.0137419
2646 0.0213814
2649 0.0313666
2652 0.0390845
2655 0.0396964
2658 0.0283881
2661 0.0150956
2664 0.00830184
2667 0.00497009
2670 0.00300435
2673 0.00217954
2676 0.001511
2679 0.000975208
2682 0.00102483
2685 0.00159051
2688 0.00252841
2691 0.0030706
2694 0.00349963
2697 0.00305818
2700 0.0028425
2703 0.00385544
2706 0.00478309
2709 0.00696832
2712 0.0103558
2715 0.0126788
2718 0.0131637
2721 0.0115424
2724 0.00983728
2727 0.0112759
2730 0.0177113
2733 0.0243472
2736 0.0304187
2739 0.0378001
2742 0.029601
2745 0.0168843
2748 0.0106745
2751 0.00859781
2754 0.00766617
2757 0.00773298
2760 0.00719863
2763 0.00625022
2766 0.00607594
2769 0.00779797
2772 0.0120918
2775 0.0151948
2778 0.0200396
2781 0.0252639
2784 0.0192883
2787 0.0114525
2790 0.00894862
2793 0.00948696
2796 0.0102406
2799 0.0118705
2802 0.0101305
2805 0.00806629
2808 0.00678156
2811 0.00732072
2814 0.00952522
2817 0.0114616
2820 0.0160448
2823 0.0199463
2826 0.0120708
2829 0.00450233
2832 0.00119916
2835 0.00120779
2838 0.000625776
2841 0.00108639
2844 0.00146239
2847 0.00215103
2850 0.00387697
2853 0.00552347
2856 0.00918935
2859 0.0125821
2862 0.0136192
2865 0.0117619
2868 0.008679
2871 0.00694014
2874 0.00655243
2877 0.00660132
2880 0.00794564
2883 0.00711376
2886 0.00785613
2889 0.00985431
2892 0.0147587
2895 0.0204926
2898 0.0274441
2901 0.0330095
2904 0.0311194
2907 0.0225685
2910 0.0151536
2913 0.0121551
2916 0.0117068
2919 0.0107876
2922 0.0113044
2925 0.00998409
2928 0.00672312
2931 0.00553047
2934 0.006135
2937 0.0071994
2940 0.00964749
2943 0.0117511
2946 0.00937986
2949 0.00653341
2952 0.0070615
2955 0.00714824
2958 0.00805987
2961 0.0102864
2964 0.00858776
2967 0.00623292
2970 0.0060511
2973 0.00786631
2976 0.00975569
2979 0.0116133
2982 0.0128164
2985 0.00888322
2988 0.00517379
2991 0.00268719
2994 0.00149161
2997 0.00163548
3000 0.00165876
3003 0.00184104
3006 0.00175215
3009 0.00389588
3012 0.00538299
3015 0.00699523
3018 0.00844372
3021 0.0072721
3024 0.00778593
3027 0.00765856
3030 0.0082106
3033 0.00907801
3036 0.0102947
3039 0.0102257
3042 0.0086799
3045 0.00847567
3048 0.00854446
3051 0.00882752
3054 0.0110067
3057 0.0111698
3060 0.0104451
3063 0.00964445
3066 0.0103113
3069 0.0111062
3072 0.0120002
3075 0.0126585
3078 0.0120242
3081 0.010021
3084 0.0104406
3087 0.0107947
3090 0.0136856
3093 0.0152627
3096 0.0150387
3099 0.0123946
3102 0.0101258
3105 0.00802505
3108 0.00856299
3111 0.00850262
3114 0.00922063
3117 0.0104726
3120 0.0108307
3123 0.0150517
3126 0.0179061
3129 0.0227112
3132 0.026697
3135 0.022417
3138 0.0126765
3141 0.00770495
3144 0.00535475
3147 0.00526923
3150 0.00380863
3153 0.00321462
3156 0.00422666
3159 0.00467098
3162 0.00610482
3165 0.00729943
3168 0.0110558
3171 0.0119918
3174 0.00906278
3177 0.0093805
3180 0.0101622
3183 0.0108657
3186 0.0128618
3189 0.0134466
3192 0.0136121
3195 0.0153003
3198 0.0172128
3201 0.0210473
3204 0.0237051
3207 0.02258
3210 0.0176813
3213 0.011334
3216 0.00871898
3219 0.00866879
3222 0.00707969
3225 0.00533317
3228 0.00487667
3231 0.00198644
3234 0.0012828
3237 0.00314776
3240 0.00300817
3243 0.00266662
3246 0.00348581
3249 0.00367509
3252 0.00384646
3255 0.00339052
3258 0.00435981
3261 0.00554276
3264 0.00787783
3267 0.00903572
3270 0.0094702
3273 0.0136088
3276 0.0157818
3279 0.0145277
3282 0.00903714
3285 0.00649173
3288 0.00364046
3291 0.00033475
3294 0.00152499
3297 0.000000000000000000e+00
3300 0.00248284
3303 0.00211366
3306 0.00263524
3309 0.00448971
3312 0.00523954
3315 0.00521988
3318 0.00451152
3321 0.00246715
3324 0.0026589
3327 0.00291606
3330 0.00566487
3333 0.00438627
3336 0.0053337
3339 0.00918157
3342 0.0120112
3345 0.0144378
3348 0.0141435
3351 0.0127771
3354 0.00794742
3357 0.00705801
3360 0.00761291
3363 0.00866603
3366 0.00830897
3369 0.00377574
3372 0.00314323
3375 0.00519288
3378 0.0053608
3381 0.00383313
3384 0.0081591
3387 0.00851678
3390 0.0065596
3393 0.00771972
3396 0.00874522
3399 0.00890648
3402 0.00912347
3405 0.00419687
3408 0.00258165
3411 0.00575855
3414 0.00721726
3417 0.0065861
3420 0.00441282
3423 0.00510385
3426 0.00406259
3429 0.00534671
3432 0.0032956
3435 0.00451884
3438 0.00785414
3441 0.00890072
3444 0.01325
3447 0.0136055
3450 0.0127956
3453 0.0190287
3456 0.0143162
3459 0.0147674
3462 0.0145434
3465 0.0172817
3468 0.0161131
3471 0.0142302
3474 0.0173846
3477 0.0188527
3480 0.0146792
3483 0.0113046
3486 0.0325909
3487 0.000519547