File: constrainednmf/example_data/BaTiO3_xrd_ramp/BTO_325K_tth.xy
0.000000000000000000e+00 0.00150937
3 0.00143796
6 0.00151201
9 0.00345145
12 0.0128604
15 0.0146555
18 0.0138688
21 0.013003
24 0.0133625
27 0.0131607
30 0.0106453
33 0.00417198
36 0.00285079
39 0.00284633
42 0.00294713
45 0.00288783
48 0.00287139
51 0.00281612
54 0.0028192
57 0.0028819
60 0.00289051
63 0.00291756
66 0.00296187
69 0.00300982
72 0.00303953
75 0.00316412
78 0.00326489
81 0.00344229
84 0.00353034
87 0.0036018
90 0.00355092
93 0.00353108
96 0.00351881
99 0.00347703
102 0.00349586
105 0.00351226
108 0.0035302
111 0.00353623
114 0.0035924
117 0.00362608
120 0.00361124
123 0.00362347
126 0.00354723
129 0.00365421
132 0.00368309
135 0.00366334
138 0.00364614
141 0.00369437
144 0.00367842
147 0.0036757
150 0.00372592
153 0.00372136
156 0.00374709
159 0.00374062
162 0.00374861
165 0.00370217
168 0.00376203
171 0.00375565
174 0.00373964
177 0.00367779
180 0.00371353
183 0.00366425
186 0.00368262
189 0.00367279
192 0.00369221
195 0.00369501
198 0.00367503
201 0.00359051
204 0.00361715
207 0.00365654
210 0.00366403
213 0.00370716
216 0.00358361
219 0.00364862
222 0.00364054
225 0.00357781
228 0.00362961
231 0.00369525
234 0.00370722
237 0.00364527
240 0.00361407
243 0.00364329
246 0.00367965
249 0.00383386
252 0.0036928
255 0.00367351
258 0.00378333
261 0.00374642
264 0.00381759
267 0.00386679
270 0.00382112
273 0.00388245
276 0.00395187
279 0.00406413
282 0.00403325
285 0.0041326
288 0.0042139
291 0.00421667
294 0.00423455
297 0.00397259
300 0.00384016
303 0.00365038
306 0.00351549
309 0.00346811
312 0.00350485
315 0.0035696
318 0.00349266
321 0.00370012
324 0.00450807
327 0.00809687
330 0.0379362
333 0.10373
336 0.0722147
339 0.0105992
342 0.00424754
345 0.00311197
348 0.00278642
351 0.00258936
354 0.00258044
357 0.00367019
360 0.00554103
363 0.00460079
366 0.0031413
369 0.00213626
372 0.00191709
375 0.00180869
378 0.00171302
381 0.00179259
384 0.0018149
387 0.00179485
390 0.00175362
393 0.00172974
396 0.00183416
399 0.00182428
402 0.00173399
405 0.00177713
408 0.00177657
411 0.00204416
414 0.0022449
417 0.00207893
420 0.00194231
423 0.00211938
426 0.00229118
429 0.00196852
432 0.00205067
435 0.00220287
438 0.00239457
441 0.00280602
444 0.00306811
447 0.00334935
450 0.00387225
453 0.00447885
456 0.00557515
459 0.00734416
462 0.0108713
465 0.0218719
468 0.0859453
471 0.6846
474 0.812189
477 0.139679
480 0.0248861
483 0.0111019
486 0.00701998
489 0.00531275
492 0.00404376
495 0.00305337
498 0.0024666
501 0.0023509
504 0.00212386
507 0.00255941
510 0.00320112
513 0.00275694
516 0.0024221
519 0.00160727
522 0.00121096
525 0.00101526
528 0.000929949
531 0.000715999
534 0.000627262
537 0.000593919
540 0.000564063
543 0.000815924
546 0.000735098
549 0.000812098
552 0.00101322
555 0.00116301
558 0.00138182
561 0.00179146
564 0.00229692
567 0.00273588
570 0.00461174
573 0.0106177
576 0.0633514
579 0.384005
582 0.126842
585 0.0151896
588 0.00556119
591 0.00355317
594 0.00250023
597 0.0018927
600 0.00170552
603 0.00158777
606 0.00118996
609 0.0011508
612 0.001284
615 0.00127883
618 0.00136784
621 0.00194405
624 0.00292335
627 0.0026079
630 0.00227586
633 0.00225935
636 0.00220951
639 0.00201034
642 0.00235947
645 0.00253591
648 0.0031278
651 0.00426348
654 0.00626097
657 0.00951497
660 0.0207151
663 0.0820147
666 0.191208
669 0.23044
672 0.346273
675 0.0677573
678 0.0167108
681 0.00780007
684 0.00529666
687 0.00432839
690 0.00442896
693 0.00377844
696 0.00263113
699 0.00219549
702 0.00177917
705 0.00167067
708 0.0018344
711 0.00160635
714 0.00150914
717 0.00163871
720 0.00175777
723 0.00186552
726 0.00189795
729 0.00199641
732 0.00237924
735 0.00297245
738 0.0049822
741 0.011403
744 0.0486194
747 0.0872363
750 0.126651
753 0.0422082
756 0.00837464
759 0.00382369
762 0.00251557
765 0.00223873
768 0.0020311
771 0.00181544
774 0.00191146
777 0.0018906
780 0.00194348
783 0.00214083
786 0.00243167
789 0.00257286
792 0.00314888
795 0.00353319
798 0.00400845
801 0.00508479
804 0.00652497
807 0.00932918
810 0.0158661
813 0.0408588
816 0.191064
819 0.450958
822 0.543921
825 0.100509
828 0.0233035
831 0.0109959
834 0.00714077
837 0.00530431
840 0.00404048
843 0.00334483
846 0.00299027
849 0.00239291
852 0.00215017
855 0.00193853
858 0.00204852
861 0.0017686
864 0.0017998
867 0.00152771
870 0.00148011
873 0.00136962
876 0.00118207
879 0.00137038
882 0.00163669
885 0.00159266
888 0.00145532
891 0.0013113
894 0.00118608
897 0.00138423
900 0.00117166
903 0.00102354
906 0.00118834
909 0.00108105
912 0.00117261
915 0.00121002
918 0.00114715
921 0.00182953
924 0.00189731
927 0.00260537
930 0.00341906
933 0.00464073
936 0.00785805
939 0.0173121
942 0.0634294
945 0.27757
948 0.280952
951 0.164565
954 0.0325292
957 0.0104197
960 0.00555887
963 0.00378007
966 0.00273459
969 0.00215529
972 0.00232271
975 0.00246751
978 0.00245404
981 0.00225854
984 0.00188348
987 0.00172707
990 0.00202985
993 0.00340881
996 0.00726017
999 0.0181993
1002 0.0554772
1005 0.0986589
1008 0.0594779
1011 0.0138975
1014 0.00438002
1017 0.0024209
1020 0.00166725
1023 0.00167163
1026 0.0013974
1029 0.00156667
1032 0.00190206
1035 0.00233761
1038 0.0026245
1041 0.00397872
1044 0.00601817
1047 0.0114612
1050 0.032038
1053 0.107982
1056 0.115412
1059 0.129776
1062 0.255031
1065 0.10173
1068 0.0226103
1071 0.00914738
1074 0.00517585
1077 0.00373774
1080 0.00272762
1083 0.0026926
1086 0.0020628
1089 0.00230373
1092 0.0022427
1095 0.00308707
1098 0.00471989
1101 0.0101712
1104 0.0350469
1107 0.0709003
1110 0.0676891
1113 0.130893
1116 0.0703781
1119 0.0137868
1122 0.00501306
1125 0.00261904
1128 0.00154641
1131 0.00129261
1134 0.0011727
1137 0.000871899
1140 0.00110322
1143 0.00108584
1146 0.00161712
1149 0.00256029
1152 0.00454064
1155 0.0136008
1158 0.0698505
1161 0.178539
1164 0.0488069
1167 0.00901413
1170 0.00364558
1173 0.00205411
1176 0.0012646
1179 0.000956561
1182 0.000789109
1185 0.00102186
1188 0.000865345
1191 0.00134638
1194 0.00171434
1197 0.00277134
1200 0.00643151
1203 0.0214268
1206 0.0320524
1209 0.0402389
1212 0.0325268
1215 0.0101432
1218 0.00371456
1221 0.0028842
1224 0.0026523
1227 0.00266438
1230 0.00307715
1233 0.00368931
1236 0.00479586
1239 0.0074149
1242 0.0122277
1245 0.0269197
1248 0.0957958
1251 0.224466
1254 0.298294
1257 0.271312
1260 0.0774327
1263 0.0205022
1266 0.00956572
1269 0.00598018
1272 0.00351099
1275 0.00255071
1278 0.00222995
1281 0.00157837
1284 0.00138019
1287 0.0012214
1290 0.000887265
1293 0.000760466
1296 0.000435092
1299 0.000503463
1302 0.000558248
1305 0.000893549
1308 0.00081281
1311 0.000768099
1314 0.000996495
1317 0.00106037
1320 0.00133607
1323 0.00156168
1326 0.00286349
1329 0.00732238
1332 0.0196892
1335 0.017647
1338 0.0142101
1341 0.0185368
1344 0.0414347
1347 0.032526
1350 0.00835838
1353 0.00364683
1356 0.00230087
1359 0.00213364
1362 0.00210058
1365 0.00242816
1368 0.00334848
1371 0.00751438
1374 0.0174673
1377 0.0226237
1380 0.0391072
1383 0.0577786
1386 0.0485617
1389 0.018524
1392 0.00610722
1395 0.00372882
1398 0.00346793
1401 0.00369006
1404 0.00463466
1407 0.00658397
1410 0.0126128
1413 0.0358697
1416 0.0623479
1419 0.0824736
1422 0.0947763
1425 0.126999
1428 0.102598
1431 0.0252989
1434 0.0100264
1437 0.00628867
1440 0.00497117
1443 0.00432632
1446 0.00367349
1449 0.00434794
1452 0.00622837
1455 0.0136745
1458 0.0443465
1461 0.062745
1464 0.0432877
1467 0.0260651
1470 0.00744543
1473 0.00464557
1476 0.00399576
1479 0.00427085
1482 0.00542728
1485 0.0076833
1488 0.0140438
1491 0.0404591
1494 0.0682083
1497 0.0567027
1500 0.0848683
1503 0.120459
1506 0.0680761
1509 0.018735
1512 0.00897091
1515 0.0057818
1518 0.00473875
1521 0.00481203
1524 0.00588011
1527 0.0103155
1530 0.0246061
1533 0.0245467
1536 0.0257775
1539 0.0438577
1542 0.0330965
1545 0.00996689
1548 0.00460754
1551 0.00342191
1554 0.00351063
1557 0.00326702
1560 0.00434726
1563 0.00558823
1566 0.0119245
1569 0.0378247
1572 0.102589
1575 0.0857908
1578 0.0302662
1581 0.00881214
1584 0.0049715
1587 0.00380188
1590 0.00302948
1593 0.0027124
1596 0.0025753
1599 0.00245049
1602 0.00247417
1605 0.00248213
1608 0.0022827
1611 0.00205195
1614 0.00254717
1617 0.00297861
1620 0.00303544
1623 0.00351835
1626 0.00404515
1629 0.00552259
1632 0.00872113
1635 0.0218121
1638 0.0539193
1641 0.0557129
1644 0.0830454
1647 0.103078
1650 0.0289815
1653 0.0105869
1656 0.00652071
1659 0.00516679
1662 0.00514957
1665 0.00590545
1668 0.00732605
1671 0.0124253
1674 0.0165651
1677 0.0185122
1680 0.0169475
1683 0.0180267
1686 0.00926586
1689 0.0069204
1692 0.00747157
1695 0.0110012
1698 0.0213056
1701 0.0396451
1704 0.0606715
1707 0.0950666
1710 0.113427
1713 0.119046
1716 0.125264
1719 0.0512464
1722 0.017721
1725 0.0106071
1728 0.00854397
1731 0.0117121
1734 0.0174431
1737 0.0148243
1740 0.0162491
1743 0.028616
1746 0.0297773
1749 0.0322843
1752 0.0132021
1755 0.004901
1758 0.0029639
1761 0.00200706
1764 0.00198297
1767 0.00190495
1770 0.00164887
1773 0.00139811
1776 0.00140057
1779 0.00142655
1782 0.00118084
1785 0.00163963
1788 0.00222727
1791 0.00221514
1794 0.00400423
1797 0.00864888
1800 0.0133829
1803 0.0234131
1806 0.0305156
1809 0.0370396
1812 0.0300542
1815 0.012818
1818 0.00628201
1821 0.00610834
1824 0.00907991
1827 0.0227324
1830 0.0413674
1833 0.0334862
1836 0.0291681
1839 0.0418669
1842 0.0785974
1845 0.0580615
1848 0.0175392
1851 0.00694459
1854 0.00390701
1857 0.00258552
1860 0.00185576
1863 0.00140178
1866 0.0010799
1869 0.000963177
1872 0.000741718
1875 0.000630916
1878 0.000680634
1881 0.00105738
1884 0.000757198
1887 0.00268834
1890 0.00449782
1893 0.0129279
1896 0.0280087
1899 0.0207294
1902 0.0152938
1905 0.016436
1908 0.0074782
1911 0.00277028
1914 0.00242491
1917 0.0031689
1920 0.0066195
1923 0.0106941
1926 0.0156107
1929 0.013826
1932 0.0173789
1935 0.0128072
1938 0.00494533
1941 0.00371079
1944 0.00504969
1947 0.0104818
1950 0.0223841
1953 0.0325374
1956 0.0522032
1959 0.0718666
1962 0.0466576
1965 0.0249405
1968 0.0094405
1971 0.00561754
1974 0.00622463
1977 0.0129511
1980 0.0206968
1983 0.0175975
1986 0.022512
1989 0.0300068
1992 0.0269143
1995 0.0132998
1998 0.00635916
2001 0.00755531
2004 0.00861113
2007 0.0112886
2010 0.0264997
2013 0.0526387
2016 0.0431159
2019 0.0397706
2022 0.0248007
2025 0.00931356
2028 0.00638735
2031 0.00583414
2034 0.0041213
2037 0.00336406
2040 0.0032069
2043 0.00354436
2046 0.00545871
2049 0.0098205
2052 0.00767246
2055 0.00927915
2058 0.0159785
2061 0.0232488
2064 0.036936
2067 0.0351816
2070 0.0412323
2073 0.0648587
2076 0.0646338
2079 0.0301522
2082 0.00999042
2085 0.00451473
2088 0.00309698
2091 0.0018857
2094 0.00116642
2097 0.000904129
2100 0.000931063
2103 0.00140509
2106 0.00237639
2109 0.00445441
2112 0.0115188
2115 0.0133755
2118 0.00975308
2121 0.00881759
2124 0.0104046
2127 0.018438
2130 0.0321087
2133 0.0237485
2136 0.0101411
2139 0.00941319
2142 0.0100622
2145 0.0112391
2148 0.0157846
2151 0.0203867
2154 0.0194929
2157 0.0196461
2160 0.0115989
2163 0.00604043
2166 0.00673902
2169 0.0141646
2172 0.0283374
2175 0.0345612
2178 0.0334128
2181 0.0263209
2184 0.0270229
2187 0.0121047
2190 0.00441515
2193 0.00394966
2196 0.00590375
2199 0.00847775
2202 0.00857209
2205 0.0134435
2208 0.0112668
2211 0.00457077
2214 0.00388573
2217 0.0093067
2220 0.0125053
2223 0.00976414
2226 0.00831646
2229 0.0104816
2232 0.0205938
2235 0.0292951
2238 0.0133853
2241 0.00584309
2244 0.00625216
2247 0.00823908
2250 0.0110038
2253 0.0126352
2256 0.0135894
2259 0.0131302
2262 0.00996185
2265 0.00726879
2268 0.0126871
2271 0.0171592
2274 0.0129483
2277 0.0122693
2280 0.0173277
2283 0.0290359
2286 0.0280114
2289 0.015182
2292 0.00494485
2295 0.00266307
2298 0.00151209
2301 0.000951891
2304 0.000923269
2307 0.00092933
2310 0.000711712
2313 0.000735678
2316 0.000449774
2319 0.00138914
2322 0.00250444
2325 0.00489277
2328 0.0120586
2331 0.011755
2334 0.00459653
2337 0.00305507
2340 0.00390513
2343 0.00561296
2346 0.00695117
2349 0.00616603
2352 0.00602921
2355 0.00934657
2358 0.0133431
2361 0.0138953
2364 0.0121842
2367 0.0120724
2370 0.016783
2373 0.0324386
2376 0.0417154
2379 0.0446732
2382 0.0386816
2385 0.0309409
2388 0.0189353
2391 0.010683
2394 0.0104893
2397 0.013064
2400 0.0125203
2403 0.0104195
2406 0.0121539
2409 0.0158311
2412 0.0110862
2415 0.0109073
2418 0.0131284
2421 0.0121902
2424 0.014266
2427 0.016825
2430 0.015037
2433 0.0162714
2436 0.0112399
2439 0.00938355
2442 0.0090913
2445 0.0083348
2448 0.0100792
2451 0.0118343
2454 0.0153993
2457 0.0202401
2460 0.019194
2463 0.0187573
2466 0.0227237
2469 0.0274965
2472 0.0273633
2475 0.0355932
2478 0.0423291
2481 0.0263142
2484 0.0108624
2487 0.00626283
2490 0.00460454
2493 0.00446724
2496 0.0040904
2499 0.00458804
2502 0.00455714
2505 0.0068362
2508 0.0137797
2511 0.0201404
2514 0.0183861
2517 0.0240341
2520 0.0291702
2523 0.0274977
2526 0.0186037
2529 0.00842817
2532 0.00606457
2535 0.00626168
2538 0.00731172
2541 0.00921108
2544 0.00819818
2547 0.00897707
2550 0.00853492
2553 0.00733547
2556 0.00486055
2559 0.00463008
2562 0.00601625
2565 0.00866798
2568 0.0125354
2571 0.0137538
2574 0.0109961
2577 0.0074976
2580 0.00993112
2583 0.0116746
2586 0.0125585
2589 0.0148579
2592 0.0130685
2595 0.00745139
2598 0.00329623
2601 0.00227948
2604 0.00220156
2607 0.00175845
2610 0.00182096
2613 0.00187165
2616 0.00266659
2619 0.00477977
2622 0.00649582
2625 0.00769894
2628 0.0084083
2631 0.0104455
2634 0.0105572
2637 0.0128402
2640 0.0152463
2643 0.0182617
2646 0.019307
2649 0.0201423
2652 0.020392
2655 0.0262407
2658 0.024745
2661 0.0111729
2664 0.0037907
2667 0.00219726
2670 0.00201818
2673 0.00183045
2676 0.00178046
2679 0.00131939
2682 0.00114649
2685 0.000809981
2688 0.0010198
2691 0.00144817
2694 0.00174765
2697 0.00366591
2700 0.00468843
2703 0.00584745
2706 0.0060306
2709 0.00608602
2712 0.00680656
2715 0.00857291
2718 0.0102887
2721 0.0133264
2724 0.015144
2727 0.0118485
2730 0.0112347
2733 0.017367
2736 0.0225754
2739 0.0218302
2742 0.0201738
2745 0.0172929
2748 0.00869549
2751 0.0054726
2754 0.00398418
2757 0.0051641
2760 0.00836223
2763 0.00879103
2766 0.00474337
2769 0.00609874
2772 0.00937894
2775 0.0101821
2778 0.0153019
2781 0.0170918
2784 0.0153578
2787 0.0125756
2790 0.00613231
2793 0.00367842
2796 0.00362966
2799 0.0045407
2802 0.00582411
2805 0.0071104
2808 0.00630474
2811 0.00725438
2814 0.0117499
2817 0.0128695
2820 0.01072
2823 0.00877782
2826 0.00466681
2829 0.00163104
2832 0.000593121
2835 0.00039142
2838 0.000461008
2841 0.00193355
2844 0.00281229
2847 0.00190165
2850 0.00310286
2853 0.00472745
2856 0.00556816
2859 0.00490628
2862 0.0062999
2865 0.0105601
2868 0.00948011
2871 0.00498474
2874 0.00405628
2877 0.00399415
2880 0.00552096
2883 0.00765486
2886 0.0123091
2889 0.0135828
2892 0.0122891
2895 0.0117065
2898 0.0135625
2901 0.0189427
2904 0.0242916
2907 0.0200983
2910 0.0116206
2913 0.00808188
2916 0.0070208
2919 0.00772228
2922 0.00438593
2925 0.00512324
2928 0.00625568
2931 0.00655704
2934 0.00731698
2937 0.00692125
2940 0.00527821
2943 0.00605835
2946 0.00623559
2949 0.00326394
2952 0.00420124
2955 0.00511603
2958 0.005751
2961 0.00618318
2964 0.00793585
2967 0.00733886
2970 0.00631042
2973 0.0063089
2976 0.00771957
2979 0.00677191
2982 0.006431
2985 0.00680391
2988 0.00242987
2991 0.00153496
2994 0.00119626
2997 0.00193669
3000 0.00255195
3003 0.00238613
3006 0.00303117
3009 0.00320615
3012 0.0032728
3015 0.00434963
3018 0.0067518
3021 0.0071801
3024 0.00789606
3027 0.00767424
3030 0.00735587
3033 0.00713786
3036 0.00920306
3039 0.00867792
3042 0.00799867
3045 0.00708988
3048 0.00463802
3051 0.00409728
3054 0.00604931
3057 0.00795557
3060 0.0106148
3063 0.0117993
3066 0.00852988
3069 0.00733774
3072 0.00853473
3075 0.0113289
3078 0.01257
3081 0.0106531
3084 0.00864578
3087 0.00756713
3090 0.00806548
3093 0.0114674
3096 0.0140816
3099 0.0132963
3102 0.00919016
3105 0.00884568
3108 0.00957098
3111 0.00786595
3114 0.00795811
3117 0.00991248
3120 0.0130275
3123 0.0152148
3126 0.0155315
3129 0.0147462
3132 0.0127777
3135 0.015209
3138 0.0147965
3141 0.0078262
3144 0.00568501
3147 0.00517281
3150 0.00530521
3153 0.00550102
3156 0.00631476
3159 0.00641595
3162 0.0102025
3165 0.0110643
3168 0.0111918
3171 0.00901072
3174 0.00797662
3177 0.00857671
3180 0.00868757
3183 0.00977464
3186 0.0119217
3189 0.015165
3192 0.0145598
3195 0.0137112
3198 0.01296
3201 0.0158342
3204 0.0172204
3207 0.0134758
3210 0.0104708
3213 0.00922399
3216 0.00554941
3219 0.00414041
3222 0.00408056
3225 0.00658008
3228 0.00768267
3231 0.00327311
3234 0.00233054
3237 0.00418822
3240 0.00280043
3243 0.0037929
3246 0.00219065
3249 0.00329942
3252 0.00456127
3255 0.00497933
3258 0.00430552
3261 0.00481311
3264 0.00640855
3267 0.00887501
3270 0.00617692
3273 0.00738178
3276 0.00424826
3279 0.00852516
3282 0.00618418
3285 0.0018471
3288 0.00230763
3291 0.000619199
3294 0.0034292
3297 0.00205416
3300 0.00236821
3303 0.00162123
3306 0.00199204
3309 0.0015343
3312 0.00531529
3315 0.00289935
3318 0.000390353
3321 0.00233178
3324 0.00544035
3327 0.00485662
3330 0.00332153
3333 0.00358463
3336 0.00460838
3339 0.00446062
3342 0.005951
3345 0.00700419
3348 0.00917399
3351 0.00808857
3354 0.00768957
3357 0.00478808
3360 0.00491028
3363 0.00501114
3366 0.00341928
3369 0.00428092
3372 0.00403919
3375 0.00354001
3378 0.00444527
3381 0.00418977
3384 0.00636357
3387 0.00526709
3390 0.00492212
3393 0.00662873
3396 0.00529622
3399 0.00697294
3402 0.00678805
3405 0.00599446
3408 0.00633438
3411 0.00670446
3414 0.00537867
3417 0.006826
3420 0.00605945
3423 0.00867148
3426 0.00362521
3429 0.00740732
3432 0.00994241
3435 0.0104227
3438 0.00909511
3441 0.0118905
3444 0.0138581
3447 0.0141086
3450 0.0184274
3453 0.01957
3456 0.0238417
3459 0.0225744
3462 0.0200175
3465 0.019448
3468 0.0180701
3471 0.0225588
3474 0.0291377
3477 0.0270297
3480 0.0224936
3483 0.0219522
3486 0.0283604
3487 7.702e-05