File: constrainednmf/example_data/BaTiO3_xrd_ramp/BTO_335K_tth.xy
0.000000000000000000e+00 0.000270678
3 0.000360549
6 0.000583121
9 0.00266973
12 0.0123042
15 0.0142128
18 0.013487
21 0.0127682
24 0.0131244
27 0.0130668
30 0.0106518
33 0.00424659
36 0.00296137
39 0.00294396
42 0.0030767
45 0.00311823
48 0.00304327
51 0.00303204
54 0.00307899
57 0.00311638
60 0.00315304
63 0.00319398
66 0.00316535
69 0.0032373
72 0.00327471
75 0.00337016
78 0.0034824
81 0.00363927
84 0.00369566
87 0.00370855
90 0.00362988
93 0.00351211
96 0.00357078
99 0.00348762
102 0.00351502
105 0.00343302
108 0.00348242
111 0.00338464
114 0.00347691
117 0.00335164
120 0.00329281
123 0.00331191
126 0.00328564
129 0.00326822
132 0.00322362
135 0.00322635
138 0.00321713
141 0.00317456
144 0.00310598
147 0.00307172
150 0.00309869
153 0.00299678
156 0.00297444
159 0.00298801
162 0.00290323
165 0.00290286
168 0.00283672
171 0.00282266
174 0.00285199
177 0.00270894
180 0.00271743
183 0.00265256
186 0.00258133
189 0.00254211
192 0.00257967
195 0.00256682
198 0.00246575
201 0.00241532
204 0.0023743
207 0.00235204
210 0.00229002
213 0.00240265
216 0.00232983
219 0.00228062
222 0.00221473
225 0.0022251
228 0.00225919
231 0.00230235
234 0.00235749
237 0.00237095
240 0.00224784
243 0.00227259
246 0.00236777
249 0.00233578
252 0.00229375
255 0.00237591
258 0.00237633
261 0.00237519
264 0.00236215
267 0.00246037
270 0.0024918
273 0.00247758
276 0.0025489
279 0.00270804
282 0.00274337
285 0.00280989
288 0.00280421
291 0.00273951
294 0.00279128
297 0.00259512
300 0.0023518
303 0.00226884
306 0.00219822
309 0.00216279
312 0.0021768
315 0.00221147
318 0.00220895
321 0.00250466
324 0.00312671
327 0.00680926
330 0.0368307
333 0.103215
336 0.0698706
339 0.0091638
342 0.00306295
345 0.00191991
348 0.0017067
351 0.00130961
354 0.00136328
357 0.00254309
360 0.00443119
363 0.00336538
366 0.00198235
369 0.00110899
372 0.000791824
375 0.000703501
378 0.000671201
381 0.000741722
384 0.000841403
387 0.000948337
390 0.000669325
393 0.000895543
396 0.000766753
399 0.000826699
402 0.000810669
405 0.000702057
408 0.000781605
411 0.00113578
414 0.00140091
417 0.00132116
420 0.00107847
423 0.00127807
426 0.00150295
429 0.00114394
432 0.0012893
435 0.0013217
438 0.0015799
441 0.00174236
444 0.00211204
447 0.00254797
450 0.00307474
453 0.00377949
456 0.00494002
459 0.00665572
462 0.0103159
465 0.0212233
468 0.0861149
471 0.69237
474 0.804035
477 0.135507
480 0.024011
483 0.0102789
486 0.00641075
489 0.00470429
492 0.00330972
495 0.00245557
498 0.00197993
501 0.00152911
504 0.0018367
507 0.00220662
510 0.00254624
513 0.00223622
516 0.00167204
519 0.000948202
522 0.000454765
525 0.000317357
528 0.000153103
531 0.000191722
534 0.000120859
537 0.000198797
540 0.000159174
543 0.000223926
546 0.000197092
549 0.000483832
552 0.000504355
555 0.000372527
558 0.000773901
561 0.000956382
564 0.00159579
567 0.00228653
570 0.00367936
573 0.0100595
576 0.0637301
579 0.386361
582 0.123029
585 0.0142769
588 0.00477146
591 0.00275482
594 0.00174869
597 0.00134357
600 0.000953755
603 0.000700717
606 0.000546019
609 0.000556483
612 0.000600219
615 0.000757005
618 0.000762419
621 0.001188
624 0.00197752
627 0.00185222
630 0.00150975
633 0.00161332
636 0.00171977
639 0.00151636
642 0.0015649
645 0.00188625
648 0.00235681
651 0.00343849
654 0.00537656
657 0.00918666
660 0.0199999
663 0.0811253
666 0.1909
669 0.232149
672 0.345112
675 0.0639581
678 0.0154989
681 0.00723529
684 0.00444881
687 0.00347051
690 0.00366037
693 0.00280238
696 0.00193439
699 0.00126254
702 0.000924762
705 0.000866748
708 0.000941705
711 0.000616065
714 0.000739426
717 0.000728013
720 0.000753664
723 0.0010405
726 0.00100897
729 0.00120608
732 0.0014002
735 0.00213616
738 0.00400499
741 0.0105254
744 0.0479293
747 0.0863132
750 0.12634
753 0.0393829
756 0.00712042
759 0.00267553
762 0.00144685
765 0.00121167
768 0.000973866
771 0.000875334
774 0.000913235
777 0.00110285
780 0.00105999
783 0.00123531
786 0.00136856
789 0.00182742
792 0.00202446
795 0.00243263
798 0.00295214
801 0.00406791
804 0.00561207
807 0.00862228
810 0.0150712
813 0.0404521
816 0.191808
819 0.4548
822 0.536055
825 0.0957946
828 0.0219393
831 0.00990295
834 0.00626152
837 0.00428552
840 0.00344696
843 0.00253346
846 0.00196808
849 0.00153235
852 0.00125648
855 0.00114643
858 0.00140028
861 0.00125511
864 0.000923087
867 0.000585062
870 0.000472653
873 0.000562972
876 0.000733089
879 0.000707361
882 0.000636853
885 0.000826097
888 0.000664271
891 0.000422725
894 0.000719172
897 0.000524295
900 0.000624762
903 0.000286507
906 0.000427429
909 0.000354738
912 0.000458121
915 0.000524206
918 0.000849064
921 0.00111628
924 0.00119823
927 0.00179927
930 0.00268618
933 0.00390834
936 0.00720441
939 0.0167136
942 0.0632493
945 0.282122
948 0.277924
951 0.160057
954 0.0306691
957 0.00940293
960 0.00513187
963 0.0030445
966 0.00233243
969 0.00170316
972 0.00152341
975 0.00180975
978 0.00184553
981 0.00161525
984 0.00125034
987 0.00139901
990 0.00168033
993 0.0029526
996 0.00658428
999 0.0182435
1002 0.0558264
1005 0.0982255
1008 0.0582087
1011 0.0129904
1014 0.00365702
1017 0.00215956
1020 0.00130698
1023 0.00127833
1026 0.000994836
1029 0.00143929
1032 0.00160262
1035 0.00193426
1038 0.00261624
1041 0.00378733
1044 0.00589149
1047 0.0111773
1050 0.0315402
1053 0.108301
1056 0.113951
1059 0.13054
1062 0.260206
1065 0.0953259
1068 0.021519
1071 0.0088538
1074 0.00516343
1077 0.00363386
1080 0.00301565
1083 0.00260832
1086 0.00210176
1089 0.00208077
1092 0.00222046
1095 0.00293121
1098 0.00482555
1101 0.0100978
1104 0.0353045
1107 0.0709607
1110 0.0672604
1113 0.134669
1116 0.0662755
1119 0.0130403
1122 0.00493686
1125 0.00281519
1128 0.00155337
1131 0.00139906
1134 0.00084472
1137 0.00090099
1140 0.000970067
1143 0.000955175
1146 0.00177919
1149 0.00237068
1152 0.0045866
1155 0.013762
1158 0.0718262
1161 0.178474
1164 0.0462981
1167 0.00866742
1170 0.00351493
1173 0.00200828
1176 0.00138509
1179 0.000776911
1182 0.000763277
1185 0.000697404
1188 0.000917377
1191 0.00108366
1194 0.00200661
1197 0.00283233
1200 0.00629609
1203 0.0216002
1206 0.0326145
1209 0.0401426
1212 0.0317088
1215 0.00957749
1218 0.00341857
1221 0.00243607
1224 0.00247473
1227 0.00257326
1230 0.00281626
1233 0.0038092
1236 0.00475776
1239 0.00734971
1242 0.0120924
1245 0.0270658
1248 0.0962535
1251 0.225983
1254 0.301649
1257 0.26614
1260 0.0727033
1263 0.0194235
1266 0.00922621
1269 0.00527933
1272 0.00379367
1275 0.002414
1278 0.00174415
1281 0.00117648
1284 0.000943561
1287 0.000580093
1290 0.000317979
1293 0.000370186
1296 0.000272414
1299 0.000178847
1302 0.000187531
1305 0.000252319
1308 0.000295134
1311 0.000329879
1314 0.000208194
1317 0.00032422
1320 0.000660684
1323 0.00127689
1326 0.00245494
1329 0.00698537
1332 0.0191796
1335 0.016896
1338 0.0127858
1341 0.0178879
1344 0.0435729
1347 0.0299234
1350 0.00722058
1353 0.00288666
1356 0.00174827
1359 0.00141034
1362 0.00113295
1365 0.00156227
1368 0.00276178
1371 0.00653646
1374 0.0169366
1377 0.0215595
1380 0.0380688
1383 0.0577352
1386 0.0473744
1389 0.0166893
1392 0.00487875
1395 0.00299792
1398 0.00258854
1401 0.00274915
1404 0.00373878
1407 0.00596053
1410 0.0118914
1413 0.0346233
1416 0.0619691
1419 0.0815212
1422 0.0932269
1425 0.130312
1428 0.0960453
1431 0.0228254
1434 0.00895514
1437 0.00521045
1440 0.00411292
1443 0.00319935
1446 0.002892
1449 0.0033193
1452 0.00546826
1455 0.0130879
1458 0.0445744
1461 0.0612514
1464 0.0418081
1467 0.023813
1470 0.00617487
1473 0.00371729
1476 0.00316269
1479 0.00328527
1482 0.00432628
1485 0.00635599
1488 0.0130819
1491 0.0393581
1494 0.0677044
1497 0.0543621
1500 0.0863292
1503 0.120391
1506 0.0622277
1509 0.0161937
1512 0.00692352
1515 0.00434655
1518 0.00329701
1521 0.00347694
1524 0.004396
1527 0.00866533
1530 0.022793
1533 0.0230435
1536 0.0241651
1539 0.0437098
1542 0.0298104
1545 0.00796908
1548 0.00301646
1551 0.00210422
1554 0.00169712
1557 0.00179311
1560 0.00281528
1563 0.00476265
1566 0.010659
1569 0.0374138
1572 0.102901
1575 0.0824008
1578 0.026863
1581 0.00719008
1584 0.00345106
1587 0.0020336
1590 0.00128637
1593 0.00114411
1596 0.0010813
1599 0.000884757
1602 0.000884806
1605 0.000578937
1608 0.000746392
1611 0.000730113
1614 0.00108835
1617 0.00106541
1620 0.0010867
1623 0.00166756
1626 0.00280206
1629 0.00423293
1632 0.00741108
1635 0.0207834
1638 0.052673
1641 0.0539537
1644 0.0847986
1647 0.0984554
1650 0.0257564
1653 0.00897483
1656 0.00502909
1659 0.00406915
1662 0.00352415
1665 0.00474237
1668 0.00634661
1671 0.0107546
1674 0.0152175
1677 0.017128
1680 0.0160645
1683 0.0165938
1686 0.00758735
1689 0.00572504
1692 0.00632451
1695 0.0095785
1698 0.019642
1701 0.0386949
1704 0.0593518
1707 0.0938294
1710 0.111978
1713 0.118715
1716 0.123414
1719 0.0458507
1722 0.0157395
1725 0.00921819
1728 0.00756039
1731 0.0104007
1734 0.0167311
1737 0.0139258
1740 0.0151106
1743 0.0274723
1746 0.0297324
1749 0.0309165
1752 0.0109334
1755 0.00407205
1758 0.00201997
1761 0.00152539
1764 0.00110223
1767 0.00104029
1770 0.000686094
1773 0.00079038
1776 0.000474724
1779 0.000557304
1782 0.000908346
1785 0.000666325
1788 0.00095055
1791 0.0017912
1794 0.00331326
1797 0.00783159
1800 0.0128338
1803 0.0226355
1806 0.0295486
1809 0.037051
1812 0.0284907
1815 0.011359
1818 0.00560739
1821 0.00563982
1824 0.0086335
1827 0.0221627
1830 0.0407402
1833 0.0322469
1836 0.0275587
1839 0.0426592
1842 0.0806701
1845 0.0536698
1848 0.0156022
1851 0.00626458
1854 0.0034253
1857 0.00213199
1860 0.00120312
1863 0.00100516
1866 0.000783646
1869 0.000520116
1872 0.000386207
1875 3.25355e-05
1878 0.000248867
1881 0.000895003
1884 0.00128554
1887 0.00186743
1890 0.00404222
1893 0.0128062
1896 0.0283243
1899 0.0201214
1902 0.0149132
1905 0.0165567
1908 0.00661919
1911 0.00267733
1914 0.00228046
1917 0.00314172
1920 0.0072171
1923 0.0106399
1926 0.0160681
1929 0.0143572
1932 0.0177993
1935 0.0125732
1938 0.00450065
1941 0.00356757
1944 0.00520992
1947 0.0102914
1950 0.0222377
1953 0.0331369
1956 0.0529563
1959 0.0720336
1962 0.0449669
1965 0.0238359
1968 0.00939066
1971 0.00579641
1974 0.00649367
1977 0.0130392
1980 0.0212325
1983 0.0179865
1986 0.0224904
1989 0.0307174
1992 0.0270685
1995 0.0130613
1998 0.00677046
2001 0.00752721
2004 0.00899453
2007 0.011743
2010 0.0273151
2013 0.0533683
2016 0.0428346
2019 0.039634
2022 0.0241462
2025 0.00946412
2028 0.00583322
2031 0.00632476
2034 0.00492558
2037 0.00378585
2040 0.00354651
2043 0.0038914
2046 0.00621188
2049 0.0102383
2052 0.00811857
2055 0.00909987
2058 0.0167902
2061 0.0241345
2064 0.0365052
2067 0.0349138
2070 0.0421822
2073 0.0675137
2076 0.0638673
2079 0.0278658
2082 0.00982818
2085 0.00519764
2088 0.00325438
2091 0.0022132
2094 0.00218958
2097 0.00196224
2100 0.00223713
2103 0.00229409
2106 0.00258741
2109 0.00558518
2112 0.0123471
2115 0.0143615
2118 0.0105973
2121 0.0091707
2124 0.0106808
2127 0.0200956
2130 0.0336237
2133 0.0227128
2136 0.0102673
2139 0.0100951
2142 0.0108735
2145 0.0120525
2148 0.0160101
2151 0.0203449
2154 0.0194966
2157 0.0203761
2160 0.0112315
2163 0.00577348
2166 0.00737464
2169 0.0146616
2172 0.0292127
2175 0.0352518
2178 0.0330485
2181 0.0260383
2184 0.0270953
2187 0.0114487
2190 0.0045144
2193 0.00404159
2196 0.00620394
2199 0.00919033
2202 0.00959742
2205 0.0145507
2208 0.0116543
2211 0.00442021
2214 0.00536973
2217 0.00945487
2220 0.0133428
2223 0.00999418
2226 0.00848207
2229 0.0112097
2232 0.0221598
2235 0.0296626
2238 0.0124563
2241 0.00595868
2244 0.00647878
2247 0.0078773
2250 0.0114924
2253 0.0129017
2256 0.0137262
2259 0.0136366
2262 0.0100031
2265 0.00752004
2268 0.0128506
2271 0.0170819
2274 0.0127447
2277 0.0117769
2280 0.0179486
2283 0.0298538
2286 0.0272347
2289 0.0130517
2292 0.004126
2295 0.00224615
2298 0.00154164
2301 0.000532289
2304 0.000534687
2307 0.000579324
2310 0.00072937
2313 0.000464301
2316 0.000493342
2319 0.00115964
2322 0.00140319
2325 0.00499855
2328 0.0122541
2331 0.0111916
2334 0.00456223
2337 0.00299547
2340 0.00358736
2343 0.00534829
2346 0.00595277
2349 0.0050293
2352 0.0054943
2355 0.00866077
2358 0.0130986
2361 0.0126156
2364 0.011209
2367 0.0111404
2370 0.0165412
2373 0.0319561
2376 0.0411017
2379 0.0434652
2382 0.0375346
2385 0.0294661
2388 0.0168822
2391 0.0102448
2394 0.00931494
2397 0.0121678
2400 0.011603
2403 0.00977125
2406 0.0124643
2409 0.0147982
2412 0.00983105
2415 0.0102475
2418 0.0125033
2421 0.0111423
2424 0.0138501
2427 0.0158479
2430 0.0143579
2433 0.0155593
2436 0.0099811
2439 0.00835673
2442 0.0082973
2445 0.00737586
2448 0.00937323
2451 0.0114164
2454 0.0146882
2457 0.0193044
2460 0.0175451
2463 0.0185073
2466 0.0214311
2469 0.0263124
2472 0.0265168
2475 0.0362048
2478 0.0410273
2481 0.022876
2484 0.00880461
2487 0.00553867
2490 0.00354152
2493 0.00361998
2496 0.0033614
2499 0.00348631
2502 0.00379465
2505 0.00650452
2508 0.0131052
2511 0.0187086
2514 0.0171208
2517 0.0232225
2520 0.0287222
2523 0.025841
2526 0.0163145
2529 0.00762595
2532 0.0048598
2535 0.00506603
2538 0.00701481
2541 0.00780972
2544 0.00691695
2547 0.00801156
2550 0.00734007
2553 0.0055307
2556 0.00418393
2559 0.0039711
2562 0.00492384
2565 0.00784632
2568 0.0114013
2571 0.0128632
2574 0.00976492
2577 0.00673233
2580 0.00854356
2583 0.0114244
2586 0.0115526
2589 0.0142243
2592 0.0110211
2595 0.0054853
2598 0.00202738
2601 0.00153428
2604 0.00145098
2607 0.000557316
2610 0.000859506
2613 0.000992313
2616 0.00210853
2619 0.00360016
2622 0.00608563
2625 0.00674217
2628 0.00798941
2631 0.00923628
2634 0.0102263
2637 0.011817
2640 0.0143765
2643 0.0168331
2646 0.0199136
2649 0.0206156
2652 0.0199177
2655 0.0261389
2658 0.0230227
2661 0.0092586
2664 0.00433927
2667 0.0020736
2670 0.00182791
2673 0.00185003
2676 0.00142982
2679 0.00151939
2682 0.000754492
2685 0.000538811
2688 0.000967413
2691 0.00153371
2694 0.00142891
2697 0.00259079
2700 0.00425961
2703 0.00496995
2706 0.00526448
2709 0.00592589
2712 0.00769988
2715 0.00797353
2718 0.00994628
2721 0.0134105
2724 0.0143218
2727 0.012368
2730 0.0118132
2733 0.0176704
2736 0.0222684
2739 0.0210838
2742 0.0200872
2745 0.0163071
2748 0.00779244
2751 0.00433463
2754 0.00379398
2757 0.00561193
2760 0.00939313
2763 0.00832999
2766 0.00582768
2769 0.00705969
2772 0.00884694
2775 0.0104306
2778 0.0161784
2781 0.0175589
2784 0.0153749
2787 0.0112062
2790 0.00591179
2793 0.00335616
2796 0.00357374
2799 0.00517778
2802 0.00759542
2805 0.0079127
2808 0.00575798
2811 0.00866891
2814 0.0113022
2817 0.0117818
2820 0.00998237
2823 0.00893853
2826 0.00449633
2829 0.00135273
2832 0.000324858
2835 0.000384031
2838 0.000550007
2841 0.00248957
2844 0.00329147
2847 0.00296799
2850 0.00386763
2853 0.00521344
2856 0.00523861
2859 0.00423191
2862 0.00747529
2865 0.0113742
2868 0.00948342
2871 0.00520661
2874 0.00397678
2877 0.00409538
2880 0.00485409
2883 0.00903008
2886 0.0117027
2889 0.0133681
2892 0.0121767
2895 0.0105626
2898 0.0142152
2901 0.0200378
2904 0.0236151
2907 0.0195375
2910 0.0122979
2913 0.00702665
2916 0.00718562
2919 0.00660583
2922 0.00528997
2925 0.00518392
2928 0.00521593
2931 0.00644878
2934 0.00801287
2937 0.00666981
2940 0.00523331
2943 0.00636685
2946 0.00570437
2949 0.00366903
2952 0.00408676
2955 0.00522413
2958 0.00614388
2961 0.00519254
2964 0.00613813
2967 0.0067529
2970 0.00598904
2973 0.00583574
2976 0.00752093
2979 0.00661143
2982 0.00565833
2985 0.00525209
2988 0.00248493
2991 0.000771293
2994 0.00109043
2997 0.00179886
3000 0.000450673
3003 0.00301672
3006 0.0020404
3009 0.00159096
3012 0.00255652
3015 0.00353893
3018 0.0062884
3021 0.00739797
3024 0.00756948
3027 0.00565084
3030 0.00540907
3033 0.00512207
3036 0.00836923
3039 0.0070661
3042 0.00682228
3045 0.00533375
3048 0.00273982
3051 0.0041842
3054 0.00569239
3057 0.00711128
3060 0.0103842
3063 0.0101067
3066 0.00600024
3069 0.00611171
3072 0.00716884
3075 0.00904595
3078 0.010298
3081 0.00877287
3084 0.00744612
3087 0.00537672
3090 0.0057922
3093 0.0104931
3096 0.00990538
3099 0.0105111
3102 0.00780646
3105 0.00686748
3108 0.00700989
3111 0.00645261
3114 0.00698743
3117 0.00852681
3120 0.0110367
3123 0.0118478
3126 0.0132514
3129 0.0119982
3132 0.0116519
3135 0.0121481
3138 0.010287
3141 0.00501485
3144 0.0034726
3147 0.001982
3150 0.00232688
3153 0.002109
3156 0.00418087
3159 0.00560903
3162 0.00920576
3165 0.00715427
3168 0.00630407
3171 0.00708465
3174 0.00551794
3177 0.00656105
3180 0.00787935
3183 0.00834962
3186 0.0103299
3189 0.0116336
3192 0.0108239
3195 0.0102922
3198 0.0109074
3201 0.014448
3204 0.0144824
3207 0.0121136
3210 0.00931867
3213 0.00590613
3216 0.00346753
3219 0.00318155
3222 0.00362655
3225 0.00482111
3228 0.00479722
3231 0.0042933
3234 0.00307546
3237 0.00121262
3240 0.00204247
3243 0.00232241
3246 0.00164161
3249 0.00267926
3252 0.00412478
3255 0.00447917
3258 0.0042106
3261 0.00590134
3264 0.00709633
3267 0.00749248
3270 0.00649788
3273 0.00720598
3276 0.00797261
3279 0.00870713
3282 0.00552139
3285 0.00395144
3288 0.00119032
3291 0.00207801
3294 0.00198869
3297 0.00251851
3300 0.0018268
3303 0.00260945
3306 0.00148459
3309 0.00402056
3312 0.00741152
3315 0.00230975
3318 0.00133084
3321 0.00105701
3324 0.00426097
3327 0.00420356
3330 0.00754449
3333 0.00530871
3336 0.00570056
3339 0.00558677
3342 0.00549274
3345 0.00840861
3348 0.00798866
3351 0.00800597
3354 0.00818979
3357 0.00313696
3360 0.00454712
3363 0.00525187
3366 0.00490753
3369 0.00423267
3372 0.00392653
3375 0.00341642
3378 0.00258688
3381 0.00355605
3384 0.00290426
3387 0.00411214
3390 0.00506554
3393 0.00430962
3396 0.00415846
3399 0.00459249
3402 0.00244154
3405 0.00487761
3408 0.00361104
3411 0.00248766
3414 0.000405295
3417 0.0018287
3420 0.00253108
3423 0.00150489
3426 0.000519978
3429 0.00409622
3432 0.00272239
3435 0.00312627
3438 0.00642246
3441 0.0017311
3444 0.00964502
3447 0.00380871
3450 0.00546021
3453 0.0103622
3456 0.00715872
3459 0.00201979
3462 0.00265057
3465 0.000110269
3468 0.0107881
3471 0.00595848
3474 0.00702891
3477 0.00641799
3480 0.00945008
3483 0.00878953
3486 0.00549647
3487 0.00147489