File: constrainednmf/example_data/BaTiO3_xrd_ramp/BTO_310K_tth.xy
0.000000000000000000e+00 0.000790119
3 0.000907765
6 0.00115137
9 0.00322327
12 0.0126467
15 0.0145101
18 0.0138284
21 0.0130993
24 0.0135034
27 0.0134265
30 0.0110234
33 0.00484724
36 0.00357434
39 0.00357038
42 0.00370079
45 0.00376091
48 0.00366536
51 0.00370904
54 0.00376019
57 0.00379949
60 0.0038288
63 0.00391327
66 0.00389747
69 0.00393106
72 0.00403239
75 0.00412531
78 0.00421533
81 0.00430743
84 0.00439448
87 0.00438113
90 0.00432207
93 0.00428316
96 0.00421092
99 0.00417113
102 0.00410406
105 0.00413421
108 0.004082
111 0.00407935
114 0.00405759
117 0.00407368
120 0.00403978
123 0.00397643
126 0.00393352
129 0.00396847
132 0.00385201
135 0.00389218
138 0.00387609
141 0.0038449
144 0.00375111
147 0.00373384
150 0.00369959
153 0.00363616
156 0.00360279
159 0.00360774
162 0.00358647
165 0.0034918
168 0.00351444
171 0.00349537
174 0.00337899
177 0.00335072
180 0.00328888
183 0.00326452
186 0.00324247
189 0.00323857
192 0.0031893
195 0.00309273
198 0.00305616
201 0.00303061
204 0.00304535
207 0.00298206
210 0.00293065
213 0.00298642
216 0.00291466
219 0.00286097
222 0.00283499
225 0.00279737
228 0.00285129
231 0.00287852
234 0.0027772
237 0.00283443
240 0.00285223
243 0.00290826
246 0.00286326
249 0.00282346
252 0.00286217
255 0.00283249
258 0.00288056
261 0.00281136
264 0.00297599
267 0.00291834
270 0.00289388
273 0.00290967
276 0.0030442
279 0.00317797
282 0.00320954
285 0.00328944
288 0.00322626
291 0.00330128
294 0.00331527
297 0.0030604
300 0.00294184
303 0.00282994
306 0.00272249
309 0.00273335
312 0.00276515
315 0.00275247
318 0.002945
321 0.00298878
324 0.00370065
327 0.00727407
330 0.0367533
333 0.102786
336 0.0720137
339 0.0101767
342 0.00359381
345 0.00253355
348 0.00221862
351 0.00206591
354 0.00204132
357 0.00307698
360 0.00504032
363 0.0040997
366 0.00253957
369 0.00172408
372 0.00143361
375 0.00136128
378 0.00119084
381 0.00131796
384 0.00145803
387 0.00150721
390 0.00132444
393 0.00139404
396 0.0014424
399 0.00147801
402 0.00152268
405 0.00143785
408 0.00159089
411 0.00168166
414 0.00186822
417 0.00185822
420 0.00181691
423 0.00190271
426 0.00208735
429 0.00188525
432 0.00193874
435 0.00193006
438 0.00222151
441 0.00246078
444 0.00276474
447 0.00320907
450 0.00378418
453 0.0043447
456 0.00547051
459 0.00727224
462 0.0106942
465 0.0212969
468 0.084259
471 0.669204
474 0.82072
477 0.142666
480 0.0251755
483 0.0109667
486 0.00716082
489 0.00528224
492 0.00400188
495 0.00309965
498 0.00253213
501 0.00226182
504 0.00244879
507 0.00271152
510 0.00314625
513 0.00282363
516 0.00226352
519 0.00174196
522 0.00115609
525 0.00100276
528 0.000886969
531 0.000722211
534 0.000939947
537 0.000857242
540 0.000768449
543 0.000866267
546 0.000777756
549 0.00102116
552 0.000865306
555 0.00106413
558 0.00132529
561 0.00179256
564 0.00223
567 0.0027394
570 0.00445433
573 0.0105255
576 0.0615259
579 0.379062
582 0.131938
585 0.0153868
588 0.00531855
591 0.00338661
594 0.00241651
597 0.00197025
600 0.00164956
603 0.00142246
606 0.0012001
609 0.0013117
612 0.00122715
615 0.00121931
618 0.00118284
621 0.00169922
624 0.00257939
627 0.00251555
630 0.00206952
633 0.00211155
636 0.0021433
639 0.00213637
642 0.00218571
645 0.00255129
648 0.00281709
651 0.00398069
654 0.00585043
657 0.00946337
660 0.0199905
663 0.078668
666 0.190759
669 0.232403
672 0.340836
675 0.0720645
678 0.0169236
681 0.0079045
684 0.00495725
687 0.00419881
690 0.00411873
693 0.00368172
696 0.00249374
699 0.00191807
702 0.00155956
705 0.00163316
708 0.00158365
711 0.001115
714 0.00146236
717 0.00125467
720 0.00142066
723 0.00168053
726 0.00165944
729 0.00149848
732 0.00219775
735 0.00265022
738 0.00433144
741 0.010745
744 0.0471548
747 0.0880306
750 0.123674
753 0.0437873
756 0.00819222
759 0.00346655
762 0.00212953
765 0.00158606
768 0.001623
771 0.00140574
774 0.00145624
777 0.00146189
780 0.00158072
783 0.00210558
786 0.00197841
789 0.00224248
792 0.00243784
795 0.00302016
798 0.00357208
801 0.00434846
804 0.00631067
807 0.00879363
810 0.015305
813 0.0393008
816 0.185325
819 0.448881
822 0.545485
825 0.106466
828 0.0234681
831 0.0108725
834 0.00682529
837 0.00506786
840 0.00372265
843 0.00285211
846 0.00256045
849 0.00200105
852 0.00175846
855 0.00175319
858 0.0017969
861 0.00133109
864 0.0012868
867 0.00138841
870 0.00107631
873 0.000737018
876 0.00110448
879 0.00141117
882 0.00131585
885 0.0013448
888 0.0011348
891 0.00106526
894 0.00095091
897 0.00094442
900 0.000728055
903 0.000777075
906 0.000893988
909 0.00100324
912 0.00117403
915 0.000981709
918 0.00123324
921 0.0013525
924 0.00168454
927 0.00236762
930 0.00312947
933 0.00429157
936 0.00763
939 0.0169358
942 0.062564
945 0.265269
948 0.288425
951 0.166991
954 0.0338644
957 0.0102827
960 0.00556896
963 0.00392918
966 0.00251101
969 0.00245148
972 0.0019745
975 0.00237472
978 0.00234522
981 0.002243
984 0.00211342
987 0.00185001
990 0.00220267
993 0.00316949
996 0.00707837
999 0.0174469
1002 0.0540121
1005 0.098658
1008 0.0601081
1011 0.0148699
1014 0.00442454
1017 0.0023897
1020 0.00185809
1023 0.00181323
1026 0.00135192
1029 0.00169962
1032 0.00192379
1035 0.00236983
1038 0.00305023
1041 0.00400535
1044 0.00611293
1047 0.0112654
1050 0.0307222
1053 0.10385
1056 0.120796
1059 0.133543
1062 0.241859
1065 0.110663
1068 0.0242896
1071 0.00984061
1074 0.00553664
1077 0.00405333
1080 0.00327608
1083 0.00298725
1086 0.00282012
1089 0.00251254
1092 0.00296621
1095 0.00343928
1098 0.00546372
1101 0.0101146
1104 0.0344294
1107 0.0706493
1110 0.0716594
1113 0.124244
1116 0.0762451
1119 0.0151702
1122 0.00566364
1125 0.00293513
1128 0.00202743
1131 0.00205313
1134 0.00142702
1137 0.0013661
1140 0.00144882
1143 0.00166376
1146 0.00210724
1149 0.00284533
1152 0.00502411
1155 0.0135608
1158 0.0676766
1161 0.177513
1164 0.0535332
1167 0.00988866
1170 0.00393508
1173 0.00227004
1176 0.00141339
1179 0.00134677
1182 0.00114008
1185 0.00120987
1188 0.00146344
1191 0.00162015
1194 0.00234138
1197 0.00346783
1200 0.0068468
1203 0.0214134
1206 0.0321526
1209 0.0405634
1212 0.0330788
1215 0.0111364
1218 0.00415847
1221 0.00320586
1224 0.00279765
1227 0.00283175
1230 0.00340075
1233 0.00382653
1236 0.00516717
1239 0.00713556
1242 0.0125265
1245 0.0267022
1248 0.0933371
1251 0.221925
1254 0.295886
1257 0.275691
1260 0.0839632
1263 0.0208276
1266 0.00994915
1269 0.00607409
1272 0.00427298
1275 0.00270314
1278 0.00213695
1281 0.0018612
1284 0.00155075
1287 0.0012333
1290 0.000973222
1293 0.000761265
1296 0.00112479
1299 0.000629613
1302 0.000928569
1305 0.000869025
1308 0.000968658
1311 0.00100772
1314 0.000804348
1317 0.00130867
1320 0.00125751
1323 0.00176398
1326 0.00271
1329 0.00746129
1332 0.0183897
1335 0.0179413
1338 0.0158371
1341 0.0190972
1344 0.0369221
1347 0.0345947
1350 0.00917837
1353 0.00385081
1356 0.0023199
1359 0.00202904
1362 0.00181995
1365 0.00234477
1368 0.00307402
1371 0.00683309
1374 0.016616
1377 0.0225996
1380 0.0396544
1383 0.0565675
1386 0.0473806
1389 0.0202195
1392 0.00628516
1395 0.0034424
1398 0.00313713
1401 0.00345063
1404 0.00442269
1407 0.00619864
1410 0.0118436
1413 0.0342838
1416 0.0606307
1419 0.0829006
1422 0.0973334
1425 0.119174
1428 0.107222
1431 0.0273328
1434 0.0101724
1437 0.00592137
1440 0.00427581
1443 0.00384823
1446 0.00327803
1449 0.00383808
1452 0.00588697
1455 0.0131854
1458 0.0418165
1461 0.0625438
1464 0.0441067
1467 0.026753
1470 0.0078368
1473 0.00407983
1476 0.00329656
1479 0.00376942
1482 0.00427814
1485 0.00678106
1488 0.01318
1491 0.0385369
1494 0.0663528
1497 0.0601008
1500 0.0818653
1503 0.116125
1506 0.0717746
1509 0.0196366
1512 0.0081052
1515 0.00514041
1518 0.00408191
1521 0.00403856
1524 0.00461903
1527 0.00929127
1530 0.0229818
1533 0.0240031
1536 0.0258043
1539 0.0407198
1542 0.033505
1545 0.00985204
1548 0.00405128
1551 0.00264855
1554 0.00236457
1557 0.00238131
1560 0.00327788
1563 0.00496567
1566 0.0108965
1569 0.0357554
1572 0.0984272
1575 0.0870123
1578 0.0320716
1581 0.00826393
1584 0.00421355
1587 0.00273365
1590 0.00207089
1593 0.00171272
1596 0.0011586
1599 0.00146072
1602 0.000825466
1605 0.00137806
1608 0.00156714
1611 0.00117604
1614 0.00146123
1617 0.0018756
1620 0.00183348
1623 0.00226708
1626 0.00314018
1629 0.00425096
1632 0.00788836
1635 0.020307
1638 0.0513881
1641 0.0569429
1644 0.078941
1647 0.103098
1650 0.0315631
1653 0.0102285
1656 0.00571185
1659 0.0039694
1662 0.00413631
1665 0.00493351
1668 0.00664043
1671 0.011041
1674 0.0154707
1677 0.0179719
1680 0.0164791
1683 0.0162455
1686 0.0089569
1689 0.00563805
1692 0.00680865
1695 0.00975932
1698 0.020321
1701 0.0374246
1704 0.0596519
1707 0.0945237
1710 0.114405
1713 0.118747
1716 0.122093
1719 0.0564079
1722 0.0182527
1725 0.0101212
1728 0.00838791
1731 0.0107607
1734 0.0159037
1737 0.0149041
1740 0.017058
1743 0.0278321
1746 0.0279746
1749 0.0310543
1752 0.0148018
1755 0.00513351
1758 0.00298584
1761 0.0020509
1764 0.00179544
1767 0.00125375
1770 0.00128673
1773 0.00101732
1776 0.00124525
1779 0.00128552
1782 0.00128724
1785 0.00112984
1788 0.00138988
1791 0.00207592
1794 0.00367822
1797 0.00769731
1800 0.013278
1803 0.0229315
1806 0.0302732
1809 0.037283
1812 0.0305922
1815 0.0137719
1818 0.00625264
1821 0.00571391
1824 0.00875357
1827 0.0217597
1830 0.0391769
1833 0.0349863
1836 0.0327142
1839 0.0413434
1842 0.0716693
1845 0.0623096
1848 0.0198269
1851 0.00738828
1854 0.00444236
1857 0.00244651
1860 0.00182384
1863 0.00144488
1866 0.00109842
1869 0.00116403
1872 0.000558523
1875 0.000382455
1878 0.00106988
1881 0.00117085
1884 0.00117748
1887 0.00237155
1890 0.00439407
1893 0.0120296
1896 0.0266508
1899 0.022448
1902 0.016772
1905 0.0164899
1908 0.00836909
1911 0.00335967
1914 0.0026775
1917 0.00341697
1920 0.00706877
1923 0.0110461
1926 0.0157438
1929 0.0146306
1932 0.0172763
1935 0.0141534
1938 0.00567171
1941 0.00435337
1944 0.00581996
1947 0.0107633
1950 0.022422
1953 0.0332482
1956 0.0524546
1959 0.071817
1962 0.0495157
1965 0.0271641
1968 0.0107651
1971 0.00693463
1974 0.00705754
1977 0.0130718
1980 0.0209533
1983 0.0189893
1986 0.0224071
1989 0.0306468
1992 0.0281637
1995 0.0154738
1998 0.00728806
2001 0.00808949
2004 0.00854479
2007 0.0126227
2010 0.0267431
2013 0.0525411
2016 0.0464333
2019 0.0398494
2022 0.0266138
2025 0.0108466
2028 0.00692868
2031 0.00667791
2034 0.0052597
2037 0.00453656
2040 0.0042387
2043 0.00471446
2046 0.00622168
2049 0.00984605
2052 0.00934676
2055 0.00995057
2058 0.0162473
2061 0.0238303
2064 0.0375032
2067 0.0384718
2070 0.0431729
2073 0.0635305
2076 0.0653813
2079 0.0346455
2082 0.0121994
2085 0.00599417
2088 0.00378985
2091 0.00328046
2094 0.00259384
2097 0.00206098
2100 0.00191269
2103 0.00272498
2106 0.00295177
2109 0.00574587
2112 0.011872
2115 0.0136725
2118 0.0114156
2121 0.0111295
2124 0.0121842
2127 0.0177943
2130 0.0303703
2133 0.026305
2136 0.0118343
2139 0.0105119
2142 0.0111044
2145 0.0122759
2148 0.0166663
2151 0.0208475
2154 0.0199513
2157 0.0197758
2160 0.0135905
2163 0.00725443
2166 0.00740144
2169 0.0153316
2172 0.0278618
2175 0.0346828
2178 0.0357833
2181 0.0284276
2184 0.026843
2187 0.0143354
2190 0.00519477
2193 0.00406428
2196 0.00605973
2199 0.00959098
2202 0.00967056
2205 0.0138923
2208 0.0124441
2211 0.00534202
2214 0.00466467
2217 0.00973864
2220 0.012767
2223 0.0110351
2226 0.0101201
2229 0.0120783
2232 0.0185066
2235 0.0288284
2238 0.0161707
2241 0.00707397
2244 0.00685534
2247 0.00826935
2250 0.0114353
2253 0.0131635
2256 0.0142344
2259 0.0138986
2262 0.0111783
2265 0.00797262
2268 0.012852
2271 0.0170183
2274 0.0143727
2277 0.0139201
2280 0.0171544
2283 0.0268119
2286 0.0285382
2289 0.0164577
2292 0.00553781
2295 0.0023428
2298 0.00132906
2301 0.0010081
2304 0.000948999
2307 0.000712268
2310 0.00078376
2313 0.000718676
2316 0.000813584
2319 0.00134461
2322 0.00210025
2325 0.00444949
2328 0.0116627
2331 0.0125178
2334 0.00532845
2337 0.00282132
2340 0.00336929
2343 0.00568763
2346 0.00651139
2349 0.00606615
2352 0.00597907
2355 0.00843707
2358 0.0127918
2361 0.0139584
2364 0.0117159
2367 0.0114928
2370 0.017258
2373 0.0317155
2376 0.0412887
2379 0.0454114
2382 0.0392893
2385 0.0299875
2388 0.0202946
2391 0.0112167
2394 0.0102792
2397 0.0125185
2400 0.0126201
2403 0.0103746
2406 0.0111487
2409 0.0145355
2412 0.0108448
2415 0.0107079
2418 0.0122931
2421 0.0115004
2424 0.0133756
2427 0.0163608
2430 0.0147658
2433 0.0159139
2436 0.0112136
2439 0.00897618
2442 0.00913059
2445 0.00819696
2448 0.009351
2451 0.0114165
2454 0.0144007
2457 0.0188018
2460 0.0186418
2463 0.0189028
2466 0.0226851
2469 0.0279075
2472 0.0280481
2475 0.0335904
2478 0.0396481
2481 0.027518
2484 0.0117308
2487 0.00581925
2490 0.00461886
2493 0.00384216
2496 0.00408519
2499 0.00356189
2502 0.00454253
2505 0.00633673
2508 0.0127939
2511 0.0186755
2514 0.0187528
2517 0.0234677
2520 0.0295381
2523 0.026949
2526 0.0188253
2529 0.00882363
2532 0.00618178
2535 0.00581624
2538 0.00732854
2541 0.00829037
2544 0.00707941
2547 0.00736326
2550 0.00840315
2553 0.00614712
2556 0.00475248
2559 0.00506959
2562 0.00530202
2565 0.00721019
2568 0.0109997
2571 0.0133724
2574 0.0100767
2577 0.00736762
2580 0.00930967
2583 0.0117997
2586 0.0120115
2589 0.0134712
2592 0.0128039
2595 0.00745768
2598 0.00271508
2601 0.00169673
2604 0.00182098
2607 0.00140942
2610 0.00113166
2613 0.00122669
2616 0.00177913
2619 0.00398361
2622 0.00696084
2625 0.00683957
2628 0.00749241
2631 0.00986904
2634 0.0100635
2637 0.012789
2640 0.0146055
2643 0.0172204
2646 0.0196199
2649 0.0218282
2652 0.0208437
2655 0.0249387
2658 0.0248056
2661 0.0129642
2664 0.00443319
2667 0.00233131
2670 0.00227249
2673 0.00164812
2676 0.00163018
2679 0.00132405
2682 0.00116272
2685 0.000579868
2688 0.00186752
2691 0.000970659
2694 0.00235283
2697 0.00223397
2700 0.00411736
2703 0.00602155
2706 0.00597642
2709 0.0063843
2712 0.00787391
2715 0.00826655
2718 0.010214
2721 0.0127862
2724 0.0152146
2727 0.013177
2730 0.0137216
2733 0.0180146
2736 0.0226831
2739 0.0229974
2742 0.0193566
2745 0.0193838
2748 0.00976748
2751 0.00555484
2754 0.00508144
2757 0.00568175
2760 0.00815444
2763 0.00892363
2766 0.00678807
2769 0.00821995
2772 0.0103007
2775 0.011405
2778 0.0161301
2781 0.0177446
2784 0.0154878
2787 0.0133751
2790 0.00839762
2793 0.00545385
2796 0.00489709
2799 0.00584872
2802 0.00666982
2805 0.00826531
2808 0.00791111
2811 0.0089032
2814 0.0120437
2817 0.01361
2820 0.0122785
2823 0.0100556
2826 0.00603449
2829 0.0012261
2832 0.00103121
2835 0.00142386
2838 0.00143869
2841 0.00258353
2844 0.00394075
2847 0.00318068
2850 0.00405217
2853 0.00582095
2856 0.00618653
2859 0.00610491
2862 0.00733779
2865 0.011349
2868 0.0112138
2871 0.00764827
2874 0.00545562
2877 0.00487424
2880 0.00667883
2883 0.0087747
2886 0.011768
2889 0.0146413
2892 0.0145901
2895 0.0123445
2898 0.014509
2901 0.0198504
2904 0.0241767
2907 0.0216558
2910 0.0145895
2913 0.00873624
2916 0.0081934
2919 0.0085485
2922 0.00675377
2925 0.00551667
2928 0.00630617
2931 0.00690701
2934 0.00729592
2937 0.00793759
2940 0.00620846
2943 0.00701432
2946 0.00730691
2949 0.00536401
2952 0.00497795
2955 0.00616467
2958 0.00530108
2961 0.00673978
2964 0.00724649
2967 0.00819919
2970 0.0075411
2973 0.00600702
2976 0.00716861
2979 0.00758094
2982 0.00781694
2985 0.00704234
2988 0.00420808
2991 0.000721263
2994 1.32905e-05
2997 0.0011961
3000 0.00225987
3003 0.00225301
3006 0.00288183
3009 0.00179406
3012 0.00348345
3015 0.00336016
3018 0.00557466
3021 0.00717465
3024 0.00692739
3027 0.00751585
3030 0.00706615
3033 0.00667432
3036 0.00671848
3039 0.00898554
3042 0.00797594
3045 0.00600983
3048 0.00480715
3051 0.00519306
3054 0.00536556
3057 0.00694102
3060 0.00933029
3063 0.0107261
3066 0.0075491
3069 0.00711054
3072 0.00783185
3075 0.00978261
3078 0.0113178
3081 0.00976008
3084 0.00854365
3087 0.00674457
3090 0.00739482
3093 0.00933879
3096 0.0110437
3099 0.0120671
3102 0.00814981
3105 0.00770167
3108 0.00718517
3111 0.00673629
3114 0.0075312
3117 0.0101028
3120 0.0115816
3123 0.0126467
3126 0.0144184
3129 0.0130093
3132 0.0110987
3135 0.0116389
3138 0.0121326
3141 0.00794262
3144 0.00449502
3147 0.00330334
3150 0.00269053
3153 0.00325351
3156 0.00423195
3159 0.00610533
3162 0.00829714
3165 0.00844617
3168 0.00706242
3171 0.00892167
3174 0.00668663
3177 0.0069717
3180 0.00649248
3183 0.00817334
3186 0.00975097
3189 0.0120871
3192 0.0121333
3195 0.0125688
3198 0.0130158
3201 0.01387
3204 0.016242
3207 0.0137583
3210 0.0100364
3213 0.00773965
3216 0.00486807
3219 0.00210441
3222 0.00413465
3225 0.00262558
3228 0.00477527
3231 0.00314024
3234 0.00155051
3237 0.00103313
3240 0.00280745
3243 0.00238189
3246 0.00356137
3249 0.00210634
3252 0.00400654
3255 0.0049474
3258 0.00615508
3261 0.00514394
3264 0.00680782
3267 0.00741103
3270 0.00739653
3273 0.00731186
3276 0.00757061
3279 0.00898414
3282 0.00705512
3285 0.00402284
3288 0.00298765
3291 0.00192617
3294 0.00327188
3297 0.000909708
3300 0.00151896
3303 0.00252184
3306 0.000901591
3309 0.00448929
3312 0.00537916
3315 0.0043248
3318 0.00309643
3321 0.00265683
3324 0.00498201
3327 0.00496572
3330 0.00474175
3333 0.00608872
3336 0.00460888
3339 0.00619408
3342 0.00833306
3345 0.008559
3348 0.008271
3351 0.0125842
3354 0.00760852
3357 0.00458808
3360 0.00371153
3363 0.00561211
3366 0.00516382
3369 0.00571916
3372 0.00338324
3375 0.00369508
3378 0.00348644
3381 0.00343675
3384 0.0062205
3387 0.00717889
3390 0.00630493
3393 0.00329533
3396 0.00263748
3399 0.00425969
3402 0.00675585
3405 0.00996837
3408 0.00611835
3411 0.00482314
3414 0.00171924
3417 0.00412046
3420 0.00480383
3423 0.00427993
3426 0.00460795
3429 0.00180527
3432 0.0047549
3435 0.00616569
3438 0.00445721
3441 0.00465245
3444 0.0112763
3447 0.00968625
3450 0.0100262
3453 0.00694259
3456 0.0165203
3459 0.0107673
3462 0.0119721
3465 0.00642908
3468 0.00591285
3471 0.00956281
3474 0.0122292
3477 0.000421423
3480 0.0129424
3483 0.0174715
3486 0.00812867
3487 0.0171979