File: constrainednmf/example_data/BaTiO3_xrd_ramp/BTO_190K_tth.xy
0.000000000000000000e+00 0.000333999
3 0.000479575
6 0.00073068
9 0.00242467
12 0.0103416
15 0.0119856
18 0.011518
21 0.0109758
24 0.0113031
27 0.011343
30 0.00931083
33 0.00412774
36 0.00313261
39 0.00315513
42 0.00326676
45 0.00335812
48 0.00325371
51 0.00331911
54 0.00334196
57 0.00339495
60 0.00344025
63 0.00349652
66 0.00350553
69 0.00353874
72 0.00356722
75 0.00364759
78 0.00372622
81 0.00383039
84 0.00386344
87 0.00389717
90 0.00385931
93 0.00380546
96 0.0036942
99 0.00371106
102 0.00367911
105 0.003636
108 0.00362421
111 0.00359789
114 0.00356183
117 0.00355733
120 0.00351723
123 0.00345373
126 0.00332572
129 0.0034218
132 0.00336508
135 0.0033171
138 0.00329637
141 0.00321539
144 0.003242
147 0.00321933
150 0.00308286
153 0.00307486
156 0.00301531
159 0.0030421
162 0.00290631
165 0.00292672
168 0.00285236
171 0.00284634
174 0.00283771
177 0.00276853
180 0.00272516
183 0.00265926
186 0.0025763
189 0.00256184
192 0.00253772
195 0.00246629
198 0.00247045
201 0.00245684
204 0.00232152
207 0.00226703
210 0.00230045
213 0.00228871
216 0.00225106
219 0.00225429
222 0.00228775
225 0.00220282
228 0.00217797
231 0.00216787
234 0.00218063
237 0.00212171
240 0.00207859
243 0.0021364
246 0.00212282
249 0.00211933
252 0.00211871
255 0.00214365
258 0.00204724
261 0.00207926
264 0.00213083
267 0.00211249
270 0.00213058
273 0.00214438
276 0.00217104
279 0.00230635
282 0.00238674
285 0.00244899
288 0.00250097
291 0.00256492
294 0.00258639
297 0.00245039
300 0.0022761
303 0.00215303
306 0.00220452
309 0.00209347
312 0.00213545
315 0.00221745
318 0.00230115
321 0.00239399
324 0.0030221
327 0.00535212
330 0.0232057
333 0.110163
336 0.0669967
339 0.0108391
342 0.00836172
345 0.00509664
348 0.00211913
351 0.00166885
354 0.00160694
357 0.00236831
360 0.0043616
363 0.00396421
366 0.0025675
369 0.00154831
372 0.00113075
375 0.00106375
378 0.00105511
381 0.00118557
384 0.00163726
387 0.00447288
390 0.0049488
393 0.00118097
396 0.00112574
399 0.00113174
402 0.00114638
405 0.0011438
408 0.00118716
411 0.00132694
414 0.00144308
417 0.00157716
420 0.00153603
423 0.00144072
426 0.00171489
429 0.00150148
432 0.00150019
435 0.00154538
438 0.00168243
441 0.00189535
444 0.0023117
447 0.00268946
450 0.00306496
453 0.00373561
456 0.00472225
459 0.00609969
462 0.00910043
465 0.0177833
468 0.0642521
471 0.473771
474 0.928755
477 0.157766
480 0.0266003
483 0.0109559
486 0.00679883
489 0.00471988
492 0.00365285
495 0.00284104
498 0.00219077
501 0.00235686
504 0.00192587
507 0.00202993
510 0.00247419
513 0.002555
516 0.00213553
519 0.0011677
522 0.000629861
525 0.000627431
528 0.000513121
531 0.000427259
534 0.000462502
537 0.000394724
540 0.00033632
543 0.000474945
546 0.000498952
549 0.000530137
552 0.000574947
555 0.000838355
558 0.000957923
561 0.00132608
564 0.00161174
567 0.00240233
570 0.00355431
573 0.00841148
576 0.0468343
579 0.302551
582 0.184852
585 0.0196858
588 0.00551405
591 0.00331131
594 0.00284432
597 0.00199561
600 0.00132115
603 0.00110542
606 0.000744593
609 0.000844304
612 0.000808607
615 0.00100051
618 0.000916919
621 0.00133493
624 0.00228592
627 0.00237977
630 0.00193541
633 0.0020129
636 0.00205503
639 0.00204002
642 0.00192495
645 0.00344016
648 0.00775084
651 0.00374768
654 0.00480163
657 0.00761521
660 0.0132914
663 0.0334033
666 0.136895
669 0.361873
672 0.243806
675 0.0908201
678 0.0211584
681 0.00826698
684 0.00496325
687 0.00438017
690 0.00342221
693 0.00345412
696 0.00340543
699 0.00726713
702 0.00188734
705 0.00128443
708 0.00125051
711 0.00233631
714 0.000786166
717 0.000767752
720 0.000829151
723 0.00108172
726 0.00102563
729 0.00104062
732 0.00129334
735 0.00174669
738 0.00286788
741 0.0063694
744 0.0233105
747 0.0942301
750 0.125042
753 0.0467273
756 0.00952361
759 0.00284889
762 0.00155467
765 0.000960248
768 0.000959885
771 0.00060308
774 0.000860196
777 0.00218499
780 0.000958082
783 0.000958712
786 0.00110027
789 0.00127919
792 0.00136134
795 0.00190523
798 0.00232656
801 0.00311121
804 0.00445078
807 0.00663857
810 0.0113194
813 0.0261353
816 0.104498
819 0.434552
822 0.541177
825 0.147671
828 0.0290843
831 0.0111476
834 0.00598056
837 0.00411092
840 0.00268594
843 0.0020393
846 0.001688
849 0.00112549
852 0.000984598
855 0.00098867
858 0.000683518
861 0.000795084
864 0.000769137
867 0.00042619
870 0.000578197
873 0.000614953
876 0.000637367
879 0.00290845
882 0.00137172
885 0.00086899
888 0.000784446
891 0.000681096
894 0.000461577
897 0.00036656
900 0.000424534
903 0.00034901
906 0.000479174
909 0.000369833
912 0.000603004
915 0.000454514
918 0.000646879
921 0.000949294
924 0.00120208
927 0.00179347
930 0.00239667
933 0.00337206
936 0.00577413
939 0.012897
942 0.0450315
945 0.158439
948 0.346792
951 0.196436
954 0.0364448
957 0.0113577
960 0.00561791
963 0.00348608
966 0.00271859
969 0.00202335
972 0.00187642
975 0.00244514
978 0.0033632
981 0.00310885
984 0.0020175
987 0.00188253
990 0.00198913
993 0.00269463
996 0.00438305
999 0.0112038
1002 0.0422962
1005 0.0973258
1008 0.0721695
1011 0.0175047
1014 0.00594602
1017 0.00263595
1020 0.00180347
1023 0.00141551
1026 0.00134219
1029 0.00138332
1032 0.00164614
1035 0.00197955
1038 0.00240468
1041 0.00320375
1044 0.00472422
1047 0.00761561
1050 0.014646
1053 0.0379786
1056 0.120116
1059 0.240647
1062 0.189153
1065 0.105389
1068 0.0383543
1071 0.0127294
1074 0.00639905
1077 0.00393997
1080 0.0032112
1083 0.00259199
1086 0.00256507
1089 0.00237585
1092 0.00286979
1095 0.00461598
1098 0.00416615
1101 0.00640501
1104 0.0137177
1107 0.0446815
1110 0.113011
1113 0.120342
1116 0.0675218
1119 0.0247539
1122 0.0072953
1125 0.00309659
1128 0.00195925
1131 0.00148394
1134 0.00128437
1137 0.00121629
1140 0.000921347
1143 0.00168591
1146 0.00203841
1149 0.00269592
1152 0.00418859
1155 0.0109297
1158 0.0497507
1161 0.130769
1164 0.103622
1167 0.0163816
1170 0.00460027
1173 0.00231628
1176 0.00163249
1179 0.00121596
1182 0.000859486
1185 0.000839353
1188 0.000774098
1191 0.000831538
1194 0.00146142
1197 0.00224541
1200 0.00432668
1203 0.0115962
1206 0.0287703
1209 0.0482963
1212 0.0348836
1215 0.0126181
1218 0.00424068
1221 0.00260411
1224 0.00239771
1227 0.0021335
1230 0.00234839
1233 0.00296478
1236 0.00398778
1239 0.00593673
1242 0.00960598
1245 0.0184479
1248 0.052115
1251 0.159404
1254 0.325055
1257 0.308622
1260 0.115074
1263 0.029352
1266 0.011764
1269 0.00632295
1272 0.00409695
1275 0.00286231
1278 0.00199496
1281 0.00164191
1284 0.00129705
1287 0.000806934
1290 0.000609539
1293 0.000915541
1296 0.000765847
1299 0.000279953
1302 0.00049676
1305 0.000597843
1308 0.000557099
1311 0.000480636
1314 0.000694207
1317 0.000503525
1320 0.000670431
1323 0.00116929
1326 0.00168417
1329 0.0027084
1332 0.00533592
1335 0.0131792
1338 0.0303274
1341 0.0400212
1344 0.0295576
1347 0.0190699
1350 0.014039
1353 0.00620568
1356 0.00327593
1359 0.00224839
1362 0.00188027
1365 0.00184999
1368 0.00214326
1371 0.00343455
1374 0.00651352
1377 0.0178304
1380 0.0451806
1383 0.0646298
1386 0.0483696
1389 0.0195759
1392 0.00985578
1395 0.00425136
1398 0.00285157
1401 0.00289916
1404 0.00354124
1407 0.00442346
1410 0.00704702
1413 0.0133223
1416 0.0331313
1419 0.0802274
1422 0.138685
1425 0.141074
1428 0.0792702
1431 0.0405315
1434 0.0156526
1437 0.00720283
1440 0.00469963
1443 0.00344156
1446 0.0031409
1449 0.00328361
1452 0.00483586
1455 0.0109712
1458 0.0257645
1461 0.0503799
1464 0.0691052
1467 0.0318185
1470 0.00855111
1473 0.00429048
1476 0.00326942
1479 0.00297925
1482 0.00383508
1485 0.00497788
1488 0.00781969
1491 0.0154269
1494 0.0362807
1497 0.0806902
1500 0.124861
1503 0.103168
1506 0.0652675
1509 0.0312524
1512 0.011394
1515 0.00603551
1518 0.00407339
1521 0.0035405
1524 0.0037092
1527 0.00488381
1530 0.0101765
1533 0.0235044
1536 0.0418247
1539 0.0438591
1542 0.028895
1545 0.0149772
1548 0.00555343
1551 0.00322614
1554 0.00215665
1557 0.00216695
1560 0.00254684
1563 0.00375673
1566 0.0089754
1569 0.0285155
1572 0.0614558
1575 0.103488
1578 0.0597371
1581 0.0138618
1584 0.00527236
1587 0.00303626
1590 0.00209885
1593 0.00135719
1596 0.00144406
1599 0.00109993
1602 0.000971703
1605 0.000725211
1608 0.000918712
1611 0.000758623
1614 0.000923563
1617 0.00134141
1620 0.0015631
1623 0.00155844
1626 0.00209051
1629 0.00307829
1632 0.00490203
1635 0.00999525
1638 0.0271982
1641 0.0622248
1644 0.0965263
1647 0.0921685
1650 0.0485514
1653 0.01716
1656 0.00717286
1659 0.00451274
1662 0.00363829
1665 0.00337009
1668 0.00442278
1671 0.00750911
1674 0.0128536
1677 0.0204653
1680 0.0224859
1683 0.0156133
1686 0.00805711
1689 0.00540917
1692 0.00520423
1695 0.00626754
1698 0.00950364
1701 0.0176977
1704 0.0398368
1707 0.0823458
1710 0.138028
1713 0.16447
1716 0.117011
1719 0.0541711
1722 0.0278493
1725 0.0137338
1728 0.00823247
1731 0.00618503
1734 0.00728706
1737 0.0123729
1740 0.0246108
1743 0.035147
1746 0.0373165
1749 0.022201
1752 0.0127292
1755 0.00869612
1758 0.00409209
1761 0.00201158
1764 0.000835451
1767 0.000847041
1770 0.000529919
1773 0.000499731
1776 0.000348605
1779 0.000558955
1782 0.000438476
1785 0.000738293
1788 0.000780829
1791 0.00117952
1794 0.00169149
1797 0.00355365
1800 0.00827658
1803 0.0199963
1806 0.0330677
1809 0.043103
1812 0.0337514
1815 0.0156922
1818 0.00809786
1821 0.00549522
1824 0.00548091
1827 0.0082439
1830 0.0158637
1833 0.0338919
1836 0.0609561
1839 0.0766908
1842 0.0634961
1845 0.0433497
1848 0.0307536
1851 0.0142967
1854 0.00579906
1857 0.00324332
1860 0.00192024
1863 0.00127858
1866 0.000936797
1869 0.000968138
1872 0.000430626
1875 0.000761029
1878 0.000464268
1881 0.000576453
1884 0.000889103
1887 0.00185196
1890 0.00418592
1893 0.00736278
1896 0.0133843
1899 0.0243097
1902 0.0315034
1905 0.0218094
1908 0.0077404
1911 0.0033229
1914 0.00229152
1917 0.00263895
1920 0.00474538
1923 0.00873107
1926 0.0148915
1929 0.0204776
1932 0.0215775
1935 0.0141018
1938 0.00759302
1941 0.00459607
1944 0.00440554
1947 0.00638633
1950 0.0127859
1953 0.0280439
1956 0.0503851
1959 0.0721463
1962 0.0720399
1965 0.0345601
1968 0.0160062
1971 0.00785355
1974 0.00635056
1977 0.00777062
1980 0.0130722
1983 0.0216345
1986 0.0332147
1989 0.0362152
1992 0.027741
1995 0.0178014
1998 0.00900718
2001 0.00589326
2004 0.00651851
2007 0.0112638
2010 0.0227149
2013 0.0362692
2016 0.0557942
2019 0.0621386
2022 0.0297125
2025 0.0118084
2028 0.00763555
2031 0.00538117
2034 0.00469997
2037 0.00608429
2040 0.00796954
2043 0.00846876
2046 0.00778024
2049 0.00640362
2052 0.00551309
2055 0.00618705
2058 0.00824796
2061 0.0132905
2064 0.0265294
2067 0.0487836
2070 0.0683987
2073 0.0778314
2076 0.0595977
2079 0.0357703
2082 0.0190286
2085 0.0109929
2088 0.00587157
2091 0.00368677
2094 0.00196736
2097 0.00212088
2100 0.00211522
2103 0.00188474
2106 0.00199823
2109 0.00278506
2112 0.00391895
2115 0.00653471
2118 0.0126505
2121 0.021504
2124 0.0283439
2127 0.0275993
2130 0.0211694
2133 0.0162334
2136 0.0144158
2139 0.0112898
2142 0.00951154
2145 0.0131384
2148 0.020459
2151 0.0258216
2154 0.0286738
2157 0.0213428
2160 0.0122099
2163 0.0091073
2166 0.00814119
2169 0.0114634
2172 0.0169577
2175 0.0279192
2178 0.0422016
2181 0.0489724
2184 0.0363298
2187 0.0162072
2190 0.00726025
2193 0.00454854
2196 0.00498942
2199 0.0085084
2202 0.0108354
2205 0.013875
2208 0.0142338
2211 0.00829349
2214 0.00464108
2217 0.00414616
2220 0.00614462
2223 0.0115972
2226 0.0186622
2229 0.0242782
2232 0.0243547
2235 0.0189917
2238 0.0142675
2241 0.0115812
2244 0.00757791
2247 0.00771697
2250 0.0109429
2253 0.0146118
2256 0.0183783
2259 0.0178223
2262 0.0113571
2265 0.00740678
2268 0.00652272
2271 0.00921308
2274 0.0150978
2277 0.0252984
2280 0.0327095
2283 0.030739
2286 0.0227773
2289 0.0169029
2292 0.0113852
2295 0.00501059
2298 0.00222321
2301 0.00159439
2304 0.000909178
2307 0.000386235
2310 0.000166277
2313 0.000418659
2316 0.000520031
2319 0.000746288
2322 0.00175592
2325 0.00429717
2328 0.00638648
2331 0.0101466
2334 0.0123316
2337 0.00427009
2340 0.00177362
2343 0.00304296
2346 0.00493613
2349 0.00770546
2352 0.0100545
2355 0.0114485
2358 0.0103927
2361 0.00901195
2364 0.00861848
2367 0.0102464
2370 0.0167177
2373 0.029278
2376 0.0407609
2379 0.0535044
2382 0.0605827
2385 0.0356051
2388 0.0169186
2391 0.0124026
2394 0.0129054
2397 0.0132999
2400 0.0156615
2403 0.0170317
2406 0.0162044
2409 0.0120124
2412 0.00818293
2415 0.00790931
2418 0.00906215
2421 0.0114386
2424 0.0171347
2427 0.0207764
2430 0.0196312
2433 0.0154546
2436 0.0104641
2439 0.00811692
2442 0.00872666
2445 0.0106161
2448 0.0129127
2451 0.014028
2454 0.0119567
2457 0.010945
2460 0.0114335
2463 0.0162194
2466 0.0259162
2469 0.0362494
2472 0.0454888
2475 0.048951
2478 0.0392989
2481 0.0241428
2484 0.0153373
2487 0.0108124
2490 0.00646099
2493 0.00409744
2496 0.00295404
2499 0.0028787
2502 0.00294054
2505 0.00393952
2508 0.00663541
2511 0.0120695
2514 0.0188529
2517 0.0277764
2520 0.0354394
2523 0.0326109
2526 0.022213
2529 0.0123774
2532 0.00736913
2535 0.00718513
2538 0.00741028
2541 0.00801473
2544 0.0088382
2547 0.00614093
2550 0.00455432
2553 0.00426861
2556 0.00594067
2559 0.00831291
2562 0.0100485
2565 0.00985908
2568 0.00834393
2571 0.00706648
2574 0.00751108
2577 0.00987018
2580 0.011969
2583 0.0149722
2586 0.0170261
2589 0.0168728
2592 0.0115933
2595 0.00639636
2598 0.00429817
2601 0.00319228
2604 0.00132772
2607 0.00096004
2610 0.000656155
2613 0.00087988
2616 0.00110692
2619 0.00279771
2622 0.00439471
2625 0.00730061
2628 0.00865831
2631 0.0108792
2634 0.0106295
2637 0.0095501
2640 0.0102827
2643 0.0144195
2646 0.0212549
2649 0.030128
2652 0.0348901
2655 0.0342769
2658 0.0251879
2661 0.0145393
2664 0.00888581
2667 0.00466517
2670 0.00174936
2673 0.000908706
2676 0.000658551
2679 0.000360239
2682 0.000533553
2685 0.000735377
2688 0.00125662
2691 0.00223837
2694 0.00188493
2697 0.00250616
2700 0.00228544
2703 0.00336592
2706 0.004755
2709 0.00719772
2712 0.00924103
2715 0.0104217
2718 0.0113728
2721 0.0103099
2724 0.0104417
2727 0.0124232
2730 0.0181082
2733 0.0246047
2736 0.0295937
2739 0.0326005
2742 0.024543
2745 0.0152709
2748 0.0112597
2751 0.00927474
2754 0.00769766
2757 0.00707881
2760 0.00612729
2763 0.0053253
2766 0.00582584
2769 0.00836305
2772 0.0119174
2775 0.0149962
2778 0.0181927
2781 0.0215434
2784 0.0163044
2787 0.0110489
2790 0.00974263
2793 0.0102018
2796 0.0107514
2799 0.00898347
2802 0.00837108
2805 0.00678805
2808 0.00667708
2811 0.00827427
2814 0.00958278
2817 0.0110365
2820 0.0165746
2823 0.0178452
2826 0.010943
2829 0.00418844
2832 0.0016657
2835 0.000727572
2838 0.00101064
2841 0.0013448
2844 0.00198221
2847 0.00225401
2850 0.00386628
2853 0.00640819
2856 0.00850817
2859 0.00977196
2862 0.0108196
2865 0.0106093
2868 0.00752932
2871 0.00634008
2874 0.00668486
2877 0.00714869
2880 0.00677092
2883 0.00677557
2886 0.0080712
2889 0.010782
2892 0.0153443
2895 0.0215295
2898 0.0269754
2901 0.0292526
2904 0.0256738
2907 0.0204188
2910 0.0148848
2913 0.0127771
2916 0.0114555
2919 0.0112258
2922 0.0104327
2925 0.00770308
2928 0.00643372
2931 0.00508542
2934 0.00577639
2937 0.00762574
2940 0.00937035
2943 0.0105367
2946 0.00813905
2949 0.00601952
2952 0.00573916
2955 0.00677992
2958 0.00734343
2961 0.00814962
2964 0.00712535
2967 0.0053168
2970 0.00641882
2973 0.00699542
2976 0.00983066
2979 0.0114064
2982 0.0104189
2985 0.00770935
2988 0.00493119
2991 0.0022084
2994 0.00107116
2997 0.000222592
3000 0.000449115
3003 0.000498339
3006 0.00220915
3009 0.00272032
3012 0.00461065
3015 0.00576509
3018 0.00544577
3021 0.00647184
3024 0.0059455
3027 0.00694876
3030 0.00813926
3033 0.00782598
3036 0.00714294
3039 0.00899242
3042 0.0065225
3045 0.00759298
3048 0.00815055
3051 0.00861209
3054 0.00830859
3057 0.00876585
3060 0.00764314
3063 0.00702782
3066 0.00912924
3069 0.00893527
3072 0.00911936
3075 0.0103899
3078 0.00986984
3081 0.00862386
3084 0.00808942
3087 0.0100803
3090 0.0127746
3093 0.0123846
3096 0.010733
3099 0.00973555
3102 0.00824266
3105 0.00760254
3108 0.00618798
3111 0.00657652
3114 0.00680407
3117 0.00761509
3120 0.00997275
3123 0.0141355
3126 0.0174679
3129 0.0205236
3132 0.021567
3135 0.0182684
3138 0.0110885
3141 0.00748079
3144 0.00465109
3147 0.00468519
3150 0.0028741
3153 0.00228306
3156 0.00368645
3159 0.00355341
3162 0.00427288
3165 0.00708961
3168 0.0111572
3171 0.0108129
3174 0.00846662
3177 0.00725609
3180 0.00804385
3183 0.01098
3186 0.0108607
3189 0.0112339
3192 0.0122379
3195 0.0140995
3198 0.0166836
3201 0.0181362
3204 0.0206384
3207 0.0189437
3210 0.0129341
3213 0.0109342
3216 0.00755253
3219 0.00708062
3222 0.0051175
3225 0.00354997
3228 0.00238714
3231 0.00228084
3234 0.00214398
3237 0.00239447
3240 6.51123e-05
3243 0.0018078
3246 0.00093847
3249 0.000905496
3252 0.00287448
3255 0.00342617
3258 0.00287775
3261 0.00623444
3264 0.0058414
3267 0.00974703
3270 0.0101277
3273 0.0133275
3276 0.0139902
3279 0.0125573
3282 0.00717152
3285 0.00413149
3288 0.00381526
3291 0.00290776
3294 0.00251031
3297 0.000621004
3300 0.00385058
3303 0.00293789
3306 0.00480375
3309 0.0047138
3312 0.00752438
3315 0.00403505
3318 0.00407024
3321 0.00352192
3324 0.00389237
3327 0.00414586
3330 0.00583792
3333 0.00750341
3336 0.0094376
3339 0.0104452
3342 0.0128074
3345 0.0137554
3348 0.012598
3351 0.0129952
3354 0.0110778
3357 0.00751354
3360 0.00965518
3363 0.00877955
3366 0.00958627
3369 0.0076878
3372 0.00434093
3375 0.00766874
3378 0.00656273
3381 0.00753461
3384 0.00858247
3387 0.0101881
3390 0.00869963
3393 0.00746979
3396 0.0135238
3399 0.00999683
3402 0.00938083
3405 0.00918697
3408 0.00800149
3411 0.0078779
3414 0.00840132
3417 0.0073591
3420 0.00780676
3423 0.00393709
3426 0.00496192
3429 0.00289814
3432 0.00393305
3435 0.00515426
3438 0.00671095
3441 0.00542161
3444 0.0108592
3447 0.014158
3450 0.0114485
3453 0.00918841
3456 0.0114189
3459 0.00903215
3462 0.0121532
3465 0.00582384
3468 0.00850013
3471 0.00896199
3474 0.0117628
3477 0.0151283
3480 0.00923099
3483 0.00546935
3486 0.0231306
3487 0.0190436