File: constrainednmf/example_data/BaTiO3_xrd_ramp/BTO_185K_tth.xy
0.000000000000000000e+00 0.000204682
3 0.00033555
6 0.00057814
9 0.00228351
12 0.00997911
15 0.011739
18 0.0112575
21 0.010732
24 0.0110868
27 0.0110692
30 0.00906729
33 0.00389162
36 0.00289959
39 0.00291546
42 0.00302913
45 0.00310749
48 0.00305111
51 0.00307683
54 0.00314245
57 0.00313331
60 0.00320648
63 0.003278
66 0.00323264
69 0.00326385
72 0.00332346
75 0.00342428
78 0.00348654
81 0.00358873
84 0.00360838
87 0.00367579
90 0.00363209
93 0.00356837
96 0.00353433
99 0.00351699
102 0.00346212
105 0.00342447
108 0.00341792
111 0.00339652
114 0.00343016
117 0.00333536
120 0.00329508
123 0.00325849
126 0.00323814
129 0.00327651
132 0.00317054
135 0.00314773
138 0.00308523
141 0.00309101
144 0.00299251
147 0.00301951
150 0.00295663
153 0.00291385
156 0.00285757
159 0.00281839
162 0.00283799
165 0.00281169
168 0.00273582
171 0.00266858
174 0.0026463
177 0.00261241
180 0.00256059
183 0.00246708
186 0.00246256
189 0.0024177
192 0.00248821
195 0.00237442
198 0.00232216
201 0.00224643
204 0.00222489
207 0.00221016
210 0.00213295
213 0.00208638
216 0.00210507
219 0.00205291
222 0.00203688
225 0.00207466
228 0.00200543
231 0.0020332
234 0.00198794
237 0.00198048
240 0.00195331
243 0.0019537
246 0.0019977
249 0.00202726
252 0.00206111
255 0.00200994
258 0.00200462
261 0.00203737
264 0.00200755
267 0.00209486
270 0.00211285
273 0.00202785
276 0.00201956
279 0.00216671
282 0.00220275
285 0.00233051
288 0.00236297
291 0.00238181
294 0.00243779
297 0.00227319
300 0.00217079
303 0.00203173
306 0.00193928
309 0.00194969
312 0.00194219
315 0.00204507
318 0.00209326
321 0.00226199
324 0.0028985
327 0.00514446
330 0.0224896
333 0.110075
336 0.0664472
339 0.0106172
342 0.00726631
345 0.00507874
348 0.00188318
351 0.00158673
354 0.00157656
357 0.0021143
360 0.0041178
363 0.00389072
366 0.00244596
369 0.00134793
372 0.000956536
375 0.000917367
378 0.000908677
381 0.00096572
384 0.00145558
387 0.004483
390 0.00492128
393 0.00105396
396 0.000938197
399 0.00101194
402 0.00106225
405 0.0009896
408 0.00103228
411 0.00112349
414 0.00133087
417 0.00136176
420 0.00125516
423 0.00143739
426 0.00159261
429 0.00129655
432 0.00136437
435 0.00136543
438 0.00152406
441 0.00165611
444 0.00209712
447 0.0024186
450 0.00301338
453 0.00353652
456 0.00437798
459 0.00609195
462 0.00893774
465 0.0174913
468 0.0627069
471 0.466724
474 0.928004
477 0.15691
480 0.0264381
483 0.0106514
486 0.0065709
489 0.00470435
492 0.00348947
495 0.00273902
498 0.00210207
501 0.00220689
504 0.00180467
507 0.00194076
510 0.00233363
513 0.00250057
516 0.00210751
519 0.00110726
522 0.000597706
525 0.00050061
528 0.000407214
531 0.000297465
534 0.000360768
537 0.000438593
540 0.000233318
543 0.000340261
546 0.000330516
549 0.000453656
552 0.000619851
555 0.000718649
558 0.000757105
561 0.00114292
564 0.00153351
567 0.00208418
570 0.00339554
573 0.00822093
576 0.0463903
579 0.298261
582 0.185819
585 0.0197434
588 0.00561047
591 0.00322424
594 0.00258218
597 0.00195363
600 0.00124758
603 0.000923665
606 0.00079237
609 0.000852375
612 0.000738172
615 0.000887153
618 0.000900032
621 0.0010976
624 0.0021156
627 0.00218308
630 0.00176305
633 0.00179846
636 0.00185614
639 0.00194479
642 0.00190391
645 0.00322771
648 0.00756105
651 0.00378553
654 0.00483833
657 0.00720065
660 0.0130705
663 0.0321485
666 0.129771
669 0.36607
672 0.248175
675 0.0852975
678 0.0209672
681 0.00813846
684 0.00497602
687 0.00412249
690 0.00316765
693 0.0035812
696 0.0032842
699 0.00725185
702 0.00186034
705 0.00113164
708 0.00131217
711 0.00205452
714 0.000891921
717 0.000807092
720 0.000741196
723 0.000857072
726 0.00112218
729 0.000962987
732 0.00108436
735 0.00150311
738 0.00272461
741 0.00600722
744 0.0222655
747 0.092196
750 0.128058
753 0.0453574
756 0.00940475
759 0.0029657
762 0.00152859
765 0.000994221
768 0.000815608
771 0.000531794
774 0.000696196
777 0.00193761
780 0.00115175
783 0.000887003
786 0.00116912
789 0.0011923
792 0.00142683
795 0.00178579
798 0.00217189
801 0.00307279
804 0.00427194
807 0.00642993
810 0.0108897
813 0.0256
816 0.101763
819 0.428185
822 0.548455
825 0.145015
828 0.0291358
831 0.0108244
834 0.00593648
837 0.00391327
840 0.00277955
843 0.00212002
846 0.00161254
849 0.00115425
852 0.000836261
855 0.000698524
858 0.000745384
861 0.00063682
864 0.000653177
867 0.000459865
870 0.000485226
873 0.000630128
876 0.000565872
879 0.00298452
882 0.00163099
885 0.000902603
888 0.000875491
891 0.000801514
894 0.000474493
897 0.000346661
900 0.000290041
903 0.000145535
906 0.000331883
909 0.000319725
912 0.000493719
915 0.000512759
918 0.000522099
921 0.000760336
924 0.00106061
927 0.00182935
930 0.00229993
933 0.00334278
936 0.00563217
939 0.0128487
942 0.0429111
945 0.156457
948 0.34816
951 0.194839
954 0.0364283
957 0.0114107
960 0.00573993
963 0.00360619
966 0.00251918
969 0.00198117
972 0.00177253
975 0.00216483
978 0.00339555
981 0.0026273
984 0.00203337
987 0.00150104
990 0.00178765
993 0.00247518
996 0.00405849
999 0.0109277
1002 0.0408552
1005 0.0976422
1008 0.0726289
1011 0.0170249
1014 0.00556373
1017 0.00262274
1020 0.00173484
1023 0.00131058
1026 0.00135893
1029 0.00132923
1032 0.00154225
1035 0.00194004
1038 0.00204455
1041 0.00285336
1044 0.00448926
1047 0.00740559
1050 0.0141962
1053 0.0365638
1056 0.113908
1059 0.243571
1062 0.198407
1065 0.100196
1068 0.0370296
1071 0.0125377
1074 0.00643198
1077 0.00363749
1080 0.0032031
1083 0.00238129
1086 0.00230803
1089 0.00230167
1092 0.0027667
1095 0.00445492
1098 0.00382168
1101 0.00628033
1104 0.0134462
1107 0.0421589
1110 0.111581
1113 0.125337
1116 0.0660554
1119 0.0237391
1122 0.00725985
1125 0.00315416
1128 0.001766
1131 0.00135248
1134 0.000952385
1137 0.000961116
1140 0.00100179
1143 0.00140435
1146 0.00160928
1149 0.00234173
1152 0.0039632
1155 0.0108093
1158 0.0490473
1161 0.128327
1164 0.105254
1167 0.0167128
1170 0.00472038
1173 0.00225332
1176 0.00115806
1179 0.00112119
1182 0.000854453
1185 0.000360114
1188 0.000848774
1191 0.000849173
1194 0.00144381
1197 0.00200417
1200 0.00413096
1203 0.0109791
1206 0.0279871
1209 0.0486882
1212 0.034897
1215 0.0120862
1218 0.00421202
1221 0.00254474
1224 0.00190758
1227 0.00209523
1230 0.00234052
1233 0.00292277
1236 0.00363972
1239 0.00569532
1242 0.00912827
1245 0.0181009
1248 0.0497134
1251 0.154935
1254 0.325586
1257 0.313931
1260 0.111744
1263 0.0292722
1266 0.0116882
1269 0.00618814
1272 0.00358071
1275 0.00257723
1278 0.00161209
1281 0.00132827
1284 0.0009273
1287 0.000573233
1290 0.000772679
1293 0.00069195
1296 0.000462622
1299 0.000189917
1302 0.000327465
1305 0.000388551
1308 0.000335705
1311 0.000306042
1314 0.000408419
1317 0.000545816
1320 0.000745255
1323 0.00070155
1326 0.00146792
1329 0.00232789
1332 0.00495486
1335 0.0121524
1338 0.028777
1341 0.0416422
1344 0.0313382
1347 0.0184623
1350 0.0124799
1353 0.00559559
1356 0.00279316
1359 0.00197355
1362 0.00159364
1365 0.00141274
1368 0.00191143
1371 0.0033713
1374 0.0061196
1377 0.0168004
1380 0.0437207
1383 0.0655088
1386 0.0495219
1389 0.0190097
1392 0.00893688
1395 0.00415713
1398 0.00271668
1401 0.00275903
1404 0.0028493
1407 0.0040028
1410 0.00659398
1413 0.0128519
1416 0.0310273
1419 0.0768895
1422 0.140423
1425 0.146183
1428 0.0790451
1431 0.0375819
1434 0.0150511
1437 0.0072108
1440 0.00440451
1443 0.0032729
1446 0.00302091
1449 0.00303339
1452 0.00459051
1455 0.010354
1458 0.0254082
1461 0.0506013
1464 0.0694024
1467 0.0310463
1470 0.00855922
1473 0.00425808
1476 0.00309938
1479 0.00296291
1482 0.00355047
1485 0.00474815
1488 0.00767776
1491 0.0145274
1494 0.0346029
1497 0.0783513
1500 0.126891
1503 0.108406
1506 0.063164
1509 0.0295224
1512 0.0115224
1515 0.00593856
1518 0.00381068
1521 0.00327592
1524 0.00344374
1527 0.00505562
1530 0.00980229
1533 0.0232614
1536 0.0415424
1539 0.045456
1542 0.0289167
1545 0.0142376
1548 0.00534404
1551 0.00281222
1554 0.00227064
1557 0.00189996
1560 0.00233386
1563 0.00376027
1566 0.00873425
1569 0.0281699
1572 0.0602548
1575 0.103253
1578 0.0602792
1581 0.013814
1584 0.00516158
1587 0.00285861
1590 0.00189154
1593 0.00148671
1596 0.00119566
1599 0.000948227
1602 0.000974663
1605 0.00074204
1608 0.000816756
1611 0.000696309
1614 0.00103618
1617 0.0012284
1620 0.00157802
1623 0.00175513
1626 0.00216206
1629 0.00286431
1632 0.00484492
1635 0.00981932
1638 0.0258793
1641 0.0608502
1644 0.0970968
1647 0.0951811
1650 0.0475568
1653 0.0168427
1656 0.00712524
1659 0.00432898
1662 0.00321327
1665 0.00315826
1668 0.00425969
1671 0.00723393
1674 0.012637
1677 0.0209036
1680 0.0230492
1683 0.0154237
1686 0.00797754
1689 0.00554332
1692 0.00516052
1695 0.00631699
1698 0.00962056
1701 0.01683
1704 0.0373977
1707 0.0794823
1710 0.139204
1713 0.1697
1716 0.119326
1719 0.0532029
1722 0.0263869
1725 0.0136975
1728 0.00788497
1731 0.00614661
1734 0.00704744
1737 0.0118209
1740 0.023562
1743 0.0354992
1746 0.0389326
1749 0.0227667
1752 0.0124649
1755 0.00801519
1758 0.00391056
1761 0.00211562
1764 0.00109581
1767 0.000924739
1770 0.000632638
1773 0.000706084
1776 0.000429932
1779 0.000584273
1782 0.000230792
1785 0.000885579
1788 0.0009212
1791 0.000989078
1794 0.00196252
1797 0.00358249
1800 0.00804051
1803 0.019427
1806 0.0328791
1809 0.0438793
1812 0.0347769
1815 0.0143585
1818 0.00786795
1821 0.00538642
1824 0.00583096
1827 0.0081291
1830 0.0152988
1833 0.0318328
1836 0.0595536
1839 0.0787859
1842 0.0681278
1845 0.0439668
1848 0.0283256
1851 0.0138336
1854 0.00597547
1857 0.00331062
1860 0.00187017
1863 0.00141478
1866 0.0010019
1869 0.000922774
1872 0.000614025
1875 0.000238526
1878 0.000372554
1881 0.00101283
1884 0.00128298
1887 0.00166105
1890 0.00389539
1893 0.00764533
1896 0.0138369
1899 0.0246812
1902 0.0316042
1905 0.0221567
1908 0.00753556
1911 0.0035973
1914 0.00280065
1917 0.00280849
1920 0.00421863
1923 0.00875674
1926 0.0154753
1929 0.020692
1932 0.0222445
1935 0.0143456
1938 0.00722091
1941 0.00455296
1944 0.00421228
1947 0.00623195
1950 0.0122665
1953 0.0273321
1956 0.0497957
1959 0.0720807
1962 0.0740963
1965 0.0348317
1968 0.0154994
1971 0.0079563
1974 0.00628399
1977 0.00770708
1980 0.0124027
1983 0.0215143
1986 0.033525
1989 0.0374298
1992 0.0284782
1995 0.0173401
1998 0.00935317
2001 0.00626651
2004 0.0065171
2007 0.0110203
2010 0.0219444
2013 0.0367064
2016 0.0556353
2019 0.063196
2022 0.0299769
2025 0.0118317
2028 0.0072781
2031 0.0052384
2034 0.00469084
2037 0.00587355
2040 0.00774573
2043 0.00867092
2046 0.00805077
2049 0.00620281
2052 0.00576481
2055 0.00639705
2058 0.00786152
2061 0.012428
2064 0.025583
2067 0.0477016
2070 0.0692527
2073 0.080526
2076 0.0618853
2079 0.0355185
2082 0.0183015
2085 0.0104515
2088 0.00592542
2091 0.00345481
2094 0.00254808
2097 0.00194686
2100 0.00166248
2103 0.0020004
2106 0.0020273
2109 0.00277273
2112 0.00382738
2115 0.00652341
2118 0.0113735
2121 0.0203506
2124 0.0287272
2127 0.0293514
2130 0.022783
2133 0.0161636
2136 0.0132128
2139 0.0103981
2142 0.0091043
2145 0.0125909
2148 0.0200354
2151 0.0261673
2154 0.0295628
2157 0.0221481
2160 0.0118548
2163 0.00842137
2166 0.00812389
2169 0.0109609
2172 0.0167031
2175 0.0283209
2178 0.0426242
2181 0.0495965
2184 0.0364971
2187 0.0164099
2190 0.00710035
2193 0.00465874
2196 0.00459043
2199 0.00833706
2202 0.0106522
2205 0.0140773
2208 0.0146457
2211 0.00836656
2214 0.00445399
2217 0.00395394
2220 0.00551424
2223 0.0105983
2226 0.0178605
2229 0.0247083
2232 0.0253214
2235 0.019666
2238 0.0137552
2241 0.010546
2244 0.00756248
2247 0.00723433
2250 0.0107358
2253 0.0150081
2256 0.0182712
2259 0.0182406
2262 0.0118392
2265 0.00728576
2268 0.00612016
2271 0.00886372
2274 0.014956
2277 0.0245322
2280 0.0324691
2283 0.0324756
2286 0.0237396
2289 0.0163632
2292 0.0105403
2295 0.00468255
2298 0.00227046
2301 0.00112636
2304 0.000826617
2307 0.000266468
2310 0.000140868
2313 0.000401994
2316 0.000529015
2319 0.000920025
2322 0.0014835
2325 0.00390745
2328 0.00580656
2331 0.00984042
2334 0.0126138
2337 0.00434946
2340 0.00197025
2343 0.00274723
2346 0.0042786
2349 0.00730885
2352 0.00992575
2355 0.0116027
2358 0.0107315
2361 0.00869202
2364 0.00826859
2367 0.00946099
2370 0.0159439
2373 0.0283552
2376 0.0400436
2379 0.0543778
2382 0.0622768
2385 0.0358763
2388 0.0169786
2391 0.0122402
2394 0.0118004
2397 0.0130707
2400 0.0157477
2403 0.0174559
2406 0.0167037
2409 0.0119328
2412 0.00762091
2415 0.00735961
2418 0.00906805
2421 0.0115234
2424 0.0169628
2427 0.0205521
2430 0.0197529
2433 0.0149975
2436 0.0100983
2439 0.00774623
2442 0.00797879
2445 0.0105639
2448 0.0130961
2451 0.0141145
2454 0.0121642
2457 0.0106686
2460 0.0107726
2463 0.0155142
2466 0.0242473
2469 0.0359292
2472 0.0460042
2475 0.050775
2478 0.0408096
2481 0.0237889
2484 0.0144492
2487 0.0100146
2490 0.00610507
2493 0.00384725
2496 0.00251703
2499 0.00276212
2502 0.00257098
2505 0.00370239
2508 0.00620581
2511 0.0115909
2514 0.0186903
2517 0.0271694
2520 0.0363722
2523 0.0336822
2526 0.0222289
2529 0.0118019
2532 0.00702157
2535 0.00725141
2538 0.00749022
2541 0.00757211
2544 0.00883746
2547 0.00636524
2550 0.00403202
2553 0.00447136
2556 0.00588294
2559 0.00788954
2562 0.00991529
2565 0.010225
2568 0.00915399
2571 0.00719799
2574 0.00686896
2577 0.00946262
2580 0.0124706
2583 0.0149791
2586 0.0177219
2589 0.0177775
2592 0.0115714
2595 0.006703
2598 0.00469505
2601 0.00261538
2604 0.00134936
2607 0.000423633
2610 0.000718025
2613 0.000966157
2616 0.00161061
2619 0.00285704
2622 0.00467366
2625 0.00719231
2628 0.00853009
2631 0.0108629
2634 0.0112051
2637 0.00904232
2640 0.00996655
2643 0.0134494
2646 0.020984
2649 0.0305088
2652 0.036545
2655 0.0361297
2658 0.0259196
2661 0.0151725
2664 0.00825195
2667 0.00443533
2670 0.00218724
2673 0.000946069
2676 0.00101363
2679 0.000646289
2682 0.000258978
2685 0.00103347
2688 0.00180884
2691 0.00239009
2694 0.00284465
2697 0.00239223
2700 0.00263937
2703 0.00328429
2706 0.00507128
2709 0.00712115
2712 0.0100334
2715 0.0111678
2718 0.0120722
2721 0.0109536
2724 0.0103896
2727 0.0122337
2730 0.0179981
2733 0.0244515
2736 0.0296207
2739 0.0342101
2742 0.0263492
2745 0.0158037
2748 0.0112499
2751 0.00884251
2754 0.00761797
2757 0.00692894
2760 0.00622261
2763 0.00643501
2766 0.00623717
2769 0.00789456
2772 0.0124804
2775 0.0147979
2778 0.0196098
2781 0.0231578
2784 0.017911
2787 0.0112669
2790 0.00952428
2793 0.0103139
2796 0.0106477
2799 0.00953209
2802 0.00900847
2805 0.00712852
2808 0.00665097
2811 0.00783226
2814 0.0093958
2817 0.0121824
2820 0.0160956
2823 0.0188345
2826 0.011319
2829 0.00416951
2832 0.00196186
2835 0.0010889
2838 0.000591036
2841 0.000408515
2844 0.00167458
2847 0.002578
2850 0.00419981
2853 0.0070905
2856 0.00959811
2859 0.0110953
2862 0.0126272
2865 0.0115176
2868 0.00840894
2871 0.00630051
2874 0.00676959
2877 0.00716491
2880 0.00658997
2883 0.00722655
2886 0.0085969
2889 0.0102245
2892 0.0155043
2895 0.0212064
2898 0.0266731
2901 0.0305924
2904 0.0273562
2907 0.0212167
2910 0.0158349
2913 0.0128099
2916 0.011606
2919 0.0109441
2922 0.0110405
2925 0.00875517
2928 0.00588769
2931 0.00534407
2934 0.00524648
2937 0.00742692
2940 0.00940649
2943 0.0111912
2946 0.00890899
2949 0.00542505
2952 0.00674434
2955 0.00801791
2958 0.00781552
2961 0.00836081
2964 0.00731349
2967 0.00654821
2970 0.00542534
2973 0.00655488
2976 0.00976951
2979 0.0117489
2982 0.0112556
2985 0.00879604
2988 0.00439909
2991 0.00273346
2994 0.000710308
2997 0.000869569
3000 0.00016591
3003 0.000885447
3006 0.00232613
3009 0.00305689
3012 0.00467183
3015 0.00565842
3018 0.00707372
3021 0.0070063
3024 0.00600975
3027 0.00778978
3030 0.00792356
3033 0.00844838
3036 0.00921812
3039 0.00762764
3042 0.00736028
3045 0.0068967
3048 0.00901238
3051 0.00845689
3054 0.0104655
3057 0.00942393
3060 0.00771799
3063 0.0076516
3066 0.00929076
3069 0.00942096
3072 0.00902495
3075 0.0109724
3078 0.0108283
3081 0.00899526
3084 0.00805823
3087 0.00958494
3090 0.0121194
3093 0.0130327
3096 0.0109537
3099 0.0111883
3102 0.00933765
3105 0.00766989
3108 0.00627002
3111 0.00644252
3114 0.00696153
3117 0.00882991
3120 0.0106639
3123 0.0133431
3126 0.0177458
3129 0.0195784
3132 0.022707
3135 0.0187113
3138 0.0101044
3141 0.00703722
3144 0.00425164
3147 0.00358905
3150 0.00277429
3153 0.00187812
3156 0.00328847
3159 0.00301067
3162 0.00398388
3165 0.0068651
3168 0.0106625
3171 0.0104957
3174 0.00855252
3177 0.00814855
3180 0.00894355
3183 0.00975734
3186 0.0104945
3189 0.0115221
3192 0.0111161
3195 0.0146029
3198 0.0157792
3201 0.0192851
3204 0.0212783
3207 0.019751
3210 0.0160505
3213 0.0121379
3216 0.00788052
3219 0.00774945
3222 0.00531357
3225 0.0048763
3228 0.00347497
3231 0.00199866
3234 0.00284522
3237 0.00201518
3240 0.000360306
3243 0.00247092
3246 0.00231711
3249 0.00343201
3252 0.00174543
3255 0.00367832
3258 0.00390546
3261 0.00684941
3264 0.00758892
3267 0.00732405
3270 0.0110203
3273 0.0123242
3276 0.0138555
3279 0.0117323
3282 0.0088943
3285 0.00509446
3288 0.00315351
3291 0.00286549
3294 0.000546227
3297 0.000620768
3300 0.00245297
3303 0.0038669
3306 0.00276326
3309 0.00527606
3312 0.00566436
3315 0.00481304
3318 0.00461521
3321 0.00371949
3324 0.00320488
3327 0.00508658
3330 0.00415473
3333 0.00651613
3336 0.00826554
3339 0.0115352
3342 0.013588
3345 0.0155595
3348 0.0144515
3351 0.0129334
3354 0.00864491
3357 0.0066448
3360 0.00753858
3363 0.0103941
3366 0.00852345
3369 0.00606002
3372 0.00521482
3375 0.00562115
3378 0.0051463
3381 0.0077222
3384 0.00655853
3387 0.00874126
3390 0.00803035
3393 0.00777901
3396 0.0103677
3399 0.0100984
3402 0.00873945
3405 0.00379283
3408 0.00726909
3411 0.00702228
3414 0.0044103
3417 0.00676042
3420 0.00533329
3423 0.00505809
3426 0.00475106
3429 0.00316704
3432 0.00252495
3435 0.0065916
3438 0.00708346
3441 0.00549719
3444 0.00791653
3447 0.0122266
3450 0.0123184
3453 0.0156346
3456 0.0107319
3459 0.00537262
3462 0.00836375
3465 0.00652751
3468 0.0103355
3471 0.0083259
3474 0.0108799
3477 0.0102095
3480 0.00889652
3483 0.0119014
3486 0.0127521
3487 0.000256837