File: constrainednmf/example_data/BaTiO3_xrd_ramp/BTO_390K_tth.xy
0.000000000000000000e+00 0.000366404
3 0.000518741
6 0.000783067
9 0.00291109
12 0.0126052
15 0.0145167
18 0.013746
21 0.0130639
24 0.013464
27 0.0134009
30 0.0109903
33 0.00467871
36 0.0034493
39 0.00344204
42 0.00358851
45 0.00361862
48 0.00355944
51 0.00351044
54 0.00363785
57 0.00362325
60 0.00367451
63 0.00371501
66 0.00372525
69 0.00376478
72 0.00378321
75 0.00382919
78 0.00392042
81 0.0040857
84 0.00413537
87 0.00417308
90 0.00406562
93 0.00401985
96 0.00393674
99 0.00387389
102 0.0037916
105 0.00373291
108 0.00374481
111 0.00369053
114 0.00365913
117 0.00363085
120 0.00364427
123 0.00352953
126 0.0034948
129 0.00344413
132 0.00347955
135 0.00340478
138 0.00332343
141 0.00328908
144 0.00322834
147 0.00325697
150 0.00317374
153 0.00311444
156 0.00308433
159 0.00301277
162 0.00302374
165 0.00294944
168 0.00297098
171 0.00279202
174 0.00280036
177 0.00281349
180 0.00276335
183 0.00268347
186 0.00262002
189 0.00258934
192 0.00256285
195 0.0025381
198 0.00245897
201 0.00242747
204 0.0024386
207 0.00224735
210 0.00235954
213 0.00234075
216 0.00231019
219 0.00229907
222 0.00231953
225 0.0022392
228 0.00228345
231 0.00234073
234 0.00230089
237 0.00222814
240 0.00222077
243 0.00225628
246 0.00229994
249 0.00234967
252 0.00229177
255 0.0022805
258 0.00230548
261 0.00235711
264 0.00232873
267 0.00239036
270 0.00246586
273 0.00246718
276 0.002525
279 0.00272063
282 0.0027382
285 0.00271818
288 0.00269918
291 0.00281126
294 0.00270674
297 0.00250025
300 0.00228312
303 0.00225914
306 0.00212779
309 0.00218209
312 0.00214121
315 0.00220773
318 0.00222537
321 0.00240551
324 0.00310664
327 0.00656602
330 0.0337747
333 0.110906
336 0.059175
339 0.00779656
342 0.00288905
345 0.00186689
348 0.0016305
351 0.00149609
354 0.00146435
357 0.00280092
360 0.00451182
363 0.00331045
366 0.00195142
369 0.00126445
372 0.000901033
375 0.000931541
378 0.000837554
381 0.000862545
384 0.00102307
387 0.000883232
390 0.000906358
393 0.000908871
396 0.000980895
399 0.00101884
402 0.00104488
405 0.00105469
408 0.00118478
411 0.00137001
414 0.0016459
417 0.0012856
420 0.00133909
423 0.00148293
426 0.00154933
429 0.00155126
432 0.00144565
435 0.00168312
438 0.00185351
441 0.00210182
444 0.00243558
447 0.00273473
450 0.00322242
453 0.00411488
456 0.00505523
459 0.006827
462 0.0103971
465 0.0215529
468 0.0870945
471 0.707809
474 0.748599
477 0.107288
480 0.021575
483 0.00990662
486 0.00660607
489 0.0047746
492 0.00366801
495 0.0028419
498 0.0023124
501 0.002073
504 0.00188668
507 0.00257128
510 0.002759
513 0.00232692
516 0.00198567
519 0.00124694
522 0.000854576
525 0.000733097
528 0.000696936
531 0.000457808
534 0.000559464
537 0.000358094
540 0.000245049
543 0.000549059
546 0.000499877
549 0.000594336
552 0.000696595
555 0.000697171
558 0.00103242
561 0.00127694
564 0.00193511
567 0.00264479
570 0.00420743
573 0.0109296
576 0.0700665
579 0.384847
582 0.100164
585 0.0126658
588 0.00475254
591 0.00265912
594 0.00215589
597 0.00158803
600 0.0012812
603 0.00121924
606 0.0011121
609 0.000899998
612 0.000877274
615 0.000994562
618 0.00123912
621 0.00140649
624 0.0023476
627 0.0020529
630 0.00181096
633 0.00176654
636 0.0018566
639 0.0017415
642 0.00165194
645 0.00225554
648 0.00262409
651 0.00398004
654 0.00572018
657 0.00915725
660 0.0192142
663 0.0647668
666 0.191155
669 0.292436
672 0.277825
675 0.0448782
678 0.0133951
681 0.00662035
684 0.00452846
687 0.00384669
690 0.00388545
693 0.00252674
696 0.0018748
699 0.00126429
702 0.00112013
705 0.00104117
708 0.000820691
711 0.000684323
714 0.000871692
717 0.000826248
720 0.00091895
723 0.00105868
726 0.000941729
729 0.00134125
732 0.00168263
735 0.0021307
738 0.00403061
741 0.00988635
744 0.0415591
747 0.0991712
750 0.121566
753 0.0268213
756 0.00586508
759 0.00263881
762 0.00176871
765 0.00130685
768 0.00115665
771 0.00110845
774 0.0012066
777 0.00103474
780 0.00122812
783 0.00141649
786 0.00161893
789 0.00166422
792 0.00201879
795 0.00285997
798 0.00312087
801 0.00421458
804 0.00579126
807 0.00877813
810 0.0153884
813 0.0398785
816 0.179975
819 0.51881
822 0.439743
825 0.0689387
828 0.0186747
831 0.0089962
834 0.00574661
837 0.00422983
840 0.00310774
843 0.00234639
846 0.00221172
849 0.00176485
852 0.00127399
855 0.00132394
858 0.00111561
861 0.00104799
864 0.000851882
867 0.000704232
870 0.000661453
873 0.000912259
876 0.00054594
879 0.000429421
882 0.000857649
885 0.000781752
888 0.000548031
891 0.000470134
894 0.000651992
897 0.000486953
900 0.00056861
903 0.000195745
906 0.000571656
909 0.00041654
912 0.000532755
915 0.000751199
918 0.000898891
921 0.000995309
924 0.00134021
927 0.00180234
930 0.00277095
933 0.00399584
936 0.00717884
939 0.0169199
942 0.0629453
945 0.287255
948 0.289365
951 0.11265
954 0.0221636
957 0.00841346
960 0.0044248
963 0.00292694
966 0.00218441
969 0.00174204
972 0.00186311
975 0.00178436
978 0.00155658
981 0.00143424
984 0.00127663
987 0.0015954
990 0.00188109
993 0.00296014
996 0.00628129
999 0.0173828
1002 0.059226
1005 0.102055
1008 0.044005
1011 0.00901931
1014 0.00343648
1017 0.001894
1020 0.0012085
1023 0.00131883
1026 0.00114373
1029 0.00115338
1032 0.00146783
1035 0.00204492
1038 0.00283406
1041 0.00364579
1044 0.00620965
1047 0.0107136
1050 0.0262878
1053 0.0857552
1056 0.127659
1059 0.175866
1062 0.234553
1065 0.0554293
1068 0.016182
1071 0.00762721
1074 0.00490937
1077 0.00336941
1080 0.00275269
1083 0.00177639
1086 0.00202591
1089 0.00204396
1092 0.00248266
1095 0.00319644
1098 0.00499918
1101 0.00958896
1104 0.0274007
1107 0.0702131
1110 0.0854617
1113 0.137787
1116 0.0388855
1119 0.00941835
1122 0.00374144
1125 0.00245054
1128 0.00172238
1131 0.00128085
1134 0.00100859
1137 0.000987168
1140 0.00117102
1143 0.00126032
1146 0.0017442
1149 0.00251581
1152 0.00491063
1155 0.0153871
1158 0.0838564
1161 0.164192
1164 0.0324632
1167 0.00712084
1170 0.00331618
1173 0.00155816
1176 0.00122624
1179 0.00121868
1182 0.00113389
1185 0.00102224
1188 0.00101842
1191 0.00119879
1194 0.00199327
1197 0.00273103
1200 0.00596908
1203 0.0188863
1206 0.036358
1209 0.0432391
1212 0.0240492
1215 0.00647679
1218 0.00320483
1221 0.00256102
1224 0.00254672
1227 0.00282361
1230 0.00315335
1233 0.00395005
1236 0.00487808
1239 0.00763728
1242 0.0126873
1245 0.0262369
1248 0.0859801
1251 0.235748
1254 0.339589
1257 0.205235
1260 0.0448105
1263 0.015493
1266 0.00842983
1269 0.00549996
1272 0.00342308
1275 0.0025114
1278 0.00209897
1281 0.00148359
1284 0.00105312
1287 0.00107444
1290 0.000723706
1293 0.000479978
1296 0.00052579
1299 0.000566291
1302 0.000455775
1305 0.000332041
1308 0.000466098
1311 0.000418542
1314 0.00034066
1317 0.000535256
1320 0.00065057
1323 0.0013957
1326 0.00229031
1329 0.00549502
1332 0.0139656
1335 0.0196008
1338 0.0146251
1341 0.0272706
1344 0.0475121
1347 0.0149529
1350 0.00451005
1353 0.00225934
1356 0.00154402
1359 0.00153846
1362 0.00134576
1365 0.00173988
1368 0.00265467
1371 0.00542908
1374 0.013462
1377 0.0236056
1380 0.0422945
1383 0.0637542
1386 0.0360359
1389 0.00974166
1392 0.00402504
1395 0.00311004
1398 0.00231154
1401 0.00271059
1404 0.00392291
1407 0.0055679
1410 0.0104921
1413 0.0253025
1416 0.0592522
1419 0.0865636
1422 0.110414
1425 0.143421
1428 0.0507477
1431 0.0146467
1434 0.00729635
1437 0.00460566
1440 0.00327176
1443 0.00302956
1446 0.00270707
1449 0.00315487
1452 0.0051914
1455 0.0128988
1458 0.0454362
1461 0.0612723
1464 0.0418538
1467 0.0136243
1470 0.00496705
1473 0.00336274
1476 0.00299774
1479 0.00312614
1482 0.00406278
1485 0.0065104
1488 0.0114123
1491 0.029064
1494 0.0652979
1497 0.0640647
1500 0.111999
1503 0.106422
1506 0.0330978
1509 0.0110311
1512 0.00589291
1515 0.00382357
1518 0.00289328
1521 0.0030056
1524 0.00392687
1527 0.00740392
1530 0.0189488
1533 0.0248825
1536 0.0315402
1539 0.0454091
1542 0.0170397
1545 0.00500719
1548 0.00255888
1551 0.00200802
1554 0.00159295
1557 0.00181908
1560 0.00260882
1563 0.00463425
1566 0.010855
1569 0.0407274
1572 0.1058
1575 0.0677219
1578 0.0164834
1581 0.00542992
1584 0.00283916
1587 0.00221284
1590 0.00144362
1593 0.000837159
1596 0.0011287
1599 0.00111526
1602 0.00100903
1605 0.000788402
1608 0.000987775
1611 0.000775577
1614 0.000815456
1617 0.00107413
1620 0.00147168
1623 0.00184789
1626 0.00227104
1629 0.00388935
1632 0.00725908
1635 0.0176218
1638 0.0470851
1641 0.0626454
1644 0.107254
1647 0.0628172
1650 0.0155413
1653 0.00675641
1656 0.00450813
1659 0.0032666
1662 0.00330082
1665 0.0036964
1668 0.00552472
1671 0.00985634
1674 0.0157891
1677 0.0179289
1680 0.0179766
1683 0.0112815
1686 0.00543183
1689 0.00506346
1692 0.00605539
1695 0.00860541
1698 0.0153464
1701 0.0322616
1704 0.0574151
1707 0.0969298
1710 0.124278
1713 0.137933
1716 0.0818725
1719 0.0243786
1722 0.0114996
1725 0.00765647
1728 0.00632388
1731 0.00759836
1734 0.0131199
1737 0.0148777
1740 0.0169262
1743 0.0303919
1746 0.0354302
1749 0.0189689
1752 0.00602993
1755 0.00312069
1758 0.00202345
1761 0.0013321
1764 0.000949093
1767 0.000690676
1770 0.000730903
1773 0.000608054
1776 0.000520243
1779 0.000744988
1782 0.000635023
1785 0.000508635
1788 0.00108099
1791 0.00157299
1794 0.00270851
1797 0.00633467
1800 0.0123287
1803 0.0224426
1806 0.0347238
1809 0.0385772
1812 0.0189198
1815 0.0066643
1818 0.00471454
1821 0.00488239
1824 0.00771001
1827 0.0150942
1830 0.033791
1833 0.0361323
1836 0.0313085
1839 0.0624738
1842 0.0758796
1845 0.0265111
1848 0.00908072
1851 0.00438912
1854 0.00285284
1857 0.00187523
1860 0.0013955
1863 0.00116156
1866 0.00095354
1869 0.000494711
1872 6.19289e-05
1875 0.000459448
1878 0.000590659
1881 0.000733706
1884 0.000880651
1887 0.00253908
1890 0.00447423
1893 0.0121925
1896 0.0282514
1899 0.0199719
1902 0.01775
1905 0.0108423
1908 0.00352353
1911 0.00222687
1914 0.00226993
1917 0.0029683
1920 0.00575164
1923 0.0107184
1926 0.0161291
1929 0.0169552
1932 0.0170916
1935 0.00697073
1938 0.00372778
1941 0.00358175
1944 0.00493302
1947 0.00875947
1950 0.0197965
1953 0.0351076
1956 0.0605337
1959 0.0683952
1962 0.0352932
1965 0.0137317
1968 0.00676986
1971 0.0052263
1974 0.00601303
1977 0.0108643
1980 0.019579
1983 0.0205035
1986 0.0277669
1989 0.0320222
1992 0.018862
1995 0.00771687
1998 0.00541486
2001 0.00606219
2004 0.00918753
2007 0.0126955
2010 0.0290608
2013 0.0538701
2016 0.0452717
2019 0.0344351
2022 0.013344
2025 0.00646935
2028 0.00452286
2031 0.00518663
2034 0.00525915
2037 0.00431786
2040 0.00380303
2043 0.0050217
2046 0.0096334
2049 0.00835404
2052 0.00574996
2055 0.00758283
2058 0.01259
2061 0.0226431
2064 0.0344258
2067 0.0377221
2070 0.054249
2073 0.0742375
2076 0.0415024
2079 0.0139863
2082 0.00713397
2085 0.00448228
2088 0.00307973
2091 0.00265567
2094 0.0022299
2097 0.00219603
2100 0.00198533
2103 0.00223722
2106 0.00281228
2109 0.00431784
2112 0.00819951
2115 0.0139075
2118 0.0121119
2121 0.00972548
2124 0.0148242
2127 0.0307689
2130 0.0272921
2133 0.0108074
2136 0.00647658
2139 0.00753622
2142 0.00981226
2145 0.0119896
2148 0.0171177
2151 0.0213173
2154 0.0219229
2157 0.0145082
2160 0.00681512
2163 0.00546961
2166 0.00633384
2169 0.0124341
2172 0.0278833
2175 0.0376904
2178 0.0317938
2181 0.028709
2184 0.0165591
2187 0.00609653
2190 0.00330348
2193 0.00348981
2196 0.0054898
2199 0.00891304
2202 0.0109166
2205 0.0150597
2208 0.00680451
2211 0.00288313
2214 0.00334119
2217 0.0064674
2220 0.0116775
2223 0.0103914
2226 0.00968445
2229 0.0153903
2232 0.0290915
2235 0.0168855
2238 0.00624155
2241 0.0036057
2244 0.00536391
2247 0.00734441
2250 0.0112027
2253 0.0132957
2256 0.0144525
2259 0.0113878
2262 0.00579631
2265 0.00496768
2268 0.0084245
2271 0.0150176
2274 0.0140481
2277 0.013135
2280 0.0244488
2283 0.0302329
2286 0.0168501
2289 0.00542108
2292 0.00237237
2295 0.00157733
2298 0.00111313
2301 0.000719877
2304 0.000294487
2307 0.000399225
2310 0.000329907
2313 0.000397274
2316 0.000821469
2319 0.00104356
2322 0.00205063
2325 0.00602805
2328 0.0129554
2331 0.00711606
2334 0.00262289
2337 0.00170917
2340 0.00232634
2343 0.00424785
2346 0.00523533
2349 0.00514702
2352 0.00651952
2355 0.0106048
2358 0.0105233
2361 0.00696913
2364 0.00909079
2367 0.0109579
2370 0.0161098
2373 0.031187
2376 0.0427334
2379 0.0433299
2382 0.0328306
2385 0.0171337
2388 0.00991818
2391 0.0077345
2394 0.00779345
2397 0.0117372
2400 0.0111553
2403 0.0106825
2406 0.0140179
2409 0.00870206
2412 0.00578391
2415 0.00761732
2418 0.0112202
2421 0.0116655
2424 0.0154639
2427 0.0149684
2430 0.0143379
2433 0.00876536
2436 0.00593895
2439 0.00667526
2442 0.00790959
2445 0.00743352
2448 0.00965813
2451 0.0113625
2454 0.0124557
2457 0.010964
2460 0.0145118
2463 0.0174073
2466 0.0209691
2469 0.0255699
2472 0.031969
2475 0.0416005
2478 0.0261535
2481 0.0103671
2484 0.00534834
2487 0.00412759
2490 0.00321161
2493 0.00270333
2496 0.00293313
2499 0.00276094
2502 0.00341348
2505 0.00538379
2508 0.0105733
2511 0.0170845
2514 0.0192978
2517 0.0268889
2520 0.0274099
2523 0.0184196
2526 0.0081136
2529 0.00536611
2532 0.00451397
2535 0.00483786
2538 0.00669402
2541 0.00763037
2544 0.00623842
2547 0.0045796
2550 0.00474795
2553 0.00584952
2556 0.00408799
2559 0.0036231
2562 0.00551239
2565 0.00941348
2568 0.00945041
2571 0.00688227
2574 0.00705886
2577 0.00684949
2580 0.00850447
2583 0.0115012
2586 0.0134729
2589 0.0126167
2592 0.00608032
2595 0.00233582
2598 0.0013149
2601 0.000900034
2604 0.000885011
2607 0.00120536
2610 0.00102902
2613 0.00113487
2616 0.00199807
2619 0.00245677
2622 0.00509954
2625 0.00736317
2628 0.00794141
2631 0.00798128
2634 0.00686685
2637 0.00822707
2640 0.0121257
2643 0.0159468
2646 0.01934
2649 0.0204771
2652 0.024095
2655 0.0241559
2658 0.0111693
2661 0.0047242
2664 0.00234805
2667 0.000557363
2670 0.00100708
2673 0.000896368
2676 0.00146124
2679 0.001534
2682 0.000481037
2685 0.000760489
2688 0.000000000000000000e+00
2691 0.000554669
2694 0.00157677
2697 0.00355877
2700 0.00467144
2703 0.0037795
2706 0.00412056
2709 0.00531567
2712 0.0065201
2715 0.00803974
2718 0.00983737
2721 0.00998582
2724 0.0108365
2727 0.0110473
2730 0.0113211
2733 0.0191837
2736 0.023209
2739 0.0211726
2742 0.0149691
2745 0.00778256
2748 0.00534148
2751 0.00368397
2754 0.00419841
2757 0.00582571
2760 0.00688941
2763 0.00632043
2766 0.00570669
2769 0.00635454
2772 0.00902671
2775 0.0124552
2778 0.0172322
2781 0.014811
2784 0.0108853
2787 0.0066785
2790 0.00509188
2793 0.00349249
2796 0.00507427
2799 0.00681504
2802 0.00858893
2805 0.00555044
2808 0.00493493
2811 0.00835257
2814 0.0119407
2817 0.0121995
2820 0.0103176
2823 0.00622082
2826 0.00308326
2829 0.00168539
2832 0.000997415
2835 0.00120415
2838 0.000938742
2841 0.00215262
2844 0.00299397
2847 0.00403741
2850 0.00447199
2853 0.0056695
2856 0.00552623
2859 0.00601706
2862 0.0113034
2865 0.0100122
2868 0.00446409
2871 0.00321263
2874 0.00462603
2877 0.00361529
2880 0.00574501
2883 0.00695774
2886 0.00977153
2889 0.0121681
2892 0.011433
2895 0.0130794
2898 0.0177551
2901 0.0229964
2904 0.0180677
2907 0.0100445
2910 0.00741859
2913 0.00696337
2916 0.00758015
2919 0.00671772
2922 0.00575898
2925 0.0053609
2928 0.00309281
2931 0.00547651
2934 0.00811381
2937 0.00545091
2940 0.00592091
2943 0.00580928
2946 0.0037185
2949 0.00257399
2952 0.00401989
2955 0.00594579
2958 0.00689141
2961 0.00576121
2964 0.00519921
2967 0.0055092
2970 0.00604061
2973 0.00570224
2976 0.00633635
2979 0.00603084
2982 0.00524156
2985 0.00270124
2988 0.00049448
2991 5.02617e-05
2994 0.000175208
2997 0.00107525
3000 0.00102249
3003 0.00204077
3006 0.00138281
3009 0.00214567
3012 0.00193475
3015 0.00398408
3018 0.00574765
3021 0.00589543
3024 0.0055715
3027 0.00416253
3030 0.00389186
3033 0.00572637
3036 0.00701098
3039 0.00723055
3042 0.00506656
3045 0.00271443
3048 0.0034135
3051 0.0036746
3054 0.0055015
3057 0.00859186
3060 0.00740361
3063 0.00551313
3066 0.00479949
3069 0.00676033
3072 0.00839037
3075 0.00792353
3078 0.0083093
3081 0.00654079
3084 0.0051361
3087 0.00557903
3090 0.00789316
3093 0.0106516
3096 0.00916886
3099 0.0058435
3102 0.00480216
3105 0.00311734
3108 0.00454105
3111 0.0043147
3114 0.0061343
3117 0.00734192
3120 0.0076999
3123 0.0103919
3126 0.011735
3129 0.0107432
3132 0.012331
3135 0.00841308
3138 0.00553949
3141 0.002581
3144 0.00206326
3147 0.00265609
3150 0.0011977
3153 0.00192101
3156 0.00206142
3159 0.00405639
3162 0.00763657
3165 0.00655868
3168 0.00564111
3171 0.00505322
3174 0.0040531
3177 0.00433235
3180 0.00560136
3183 0.00696118
3186 0.00944034
3189 0.0102599
3192 0.00883075
3195 0.00988908
3198 0.0115363
3201 0.0143067
3204 0.0121691
3207 0.00918541
3210 0.00682361
3213 0.00279695
3216 0.00319349
3219 0.00477439
3222 0.00504841
3225 0.00355913
3228 0.00257157
3231 0.00259894
3234 0.0016201
3237 0.000958809
3240 0.00167439
3243 0.0014134
3246 0.000255971
3249 0.00256649
3252 0.00222204
3255 0.00393781
3258 0.00687364
3261 0.00542807
3264 0.00615925
3267 0.00547486
3270 0.00499869
3273 0.00656877
3276 0.0085697
3279 0.00692278
3282 0.00355415
3285 0.00341503
3288 0.00249291
3291 0.000564129
3294 0.0018305
3297 0.00267416
3300 0.00323832
3303 0.00272288
3306 0.00482286
3309 0.00491183
3312 0.00373982
3315 0.00340179
3318 0.00265313
3321 0.00413878
3324 0.00527543
3327 0.00536195
3330 0.00535888
3333 0.00493512
3336 0.0053074
3339 0.00787922
3342 0.00838866
3345 0.0111953
3348 0.00816171
3351 0.00625988
3354 0.00436646
3357 0.00550847
3360 0.00532987
3363 0.00550856
3366 0.00572953
3369 0.00469487
3372 0.00221314
3375 0.00272753
3378 0.00339015
3381 0.00689308
3384 0.00480585
3387 0.0060474
3390 0.00706309
3393 0.00615218
3396 0.00613137
3399 0.00525886
3402 0.00480088
3405 0.00218157
3408 0.00259852
3411 0.00242112
3414 0.0022695
3417 0.00474263
3420 0.00426709
3423 0.00302505
3426 0.000616264
3429 0.000323195
3432 0.00337531
3435 0.00437011
3438 0.00420942
3441 0.00659049
3444 0.00321443
3447 0.00680008
3450 0.0106841
3453 0.00840979
3456 0.0065022
3459 0.00148088
3462 0.00496166
3465 0.00720692
3468 0.00585823
3471 0.0073573
3474 0.00604292
3477 0.0133314
3480 0.00794401
3483 0.00599965
3486 0.0112144
3487 0.00515394