File: constrainednmf/example_data/BaTiO3_xrd_ramp/BTO_285K_tth.xy
0.000000000000000000e+00 9.81062e-05
3 0.000234945
6 0.000503636
9 0.00233453
12 0.0107535
15 0.0124361
18 0.011861
21 0.0112805
24 0.011618
27 0.0115902
30 0.00944006
33 0.00400289
36 0.00290128
39 0.00291967
42 0.00307727
45 0.00313779
48 0.00313523
51 0.00310166
54 0.00315923
57 0.00318927
60 0.00327005
63 0.0033062
66 0.00329467
69 0.00337076
72 0.00340456
75 0.0034982
78 0.00354107
81 0.00366234
84 0.003743
87 0.00375172
90 0.00365859
93 0.00364418
96 0.00360525
99 0.00353595
102 0.00346058
105 0.00349426
108 0.0034863
111 0.00348953
114 0.00340631
117 0.00342871
120 0.00334928
123 0.00327675
126 0.00323814
129 0.00332364
132 0.00324137
135 0.00316751
138 0.00311835
141 0.00308843
144 0.00311216
147 0.00302003
150 0.00298261
153 0.00291637
156 0.00291356
159 0.00284735
162 0.00279245
165 0.00277791
168 0.00274569
171 0.00265107
174 0.00262317
177 0.00260849
180 0.00255083
183 0.00249859
186 0.00242945
189 0.00242454
192 0.00229917
195 0.00232144
198 0.00230702
201 0.0021906
204 0.00211583
207 0.00214993
210 0.00213946
213 0.0020971
216 0.00211105
219 0.0020794
222 0.00194138
225 0.00198093
228 0.00205399
231 0.00209025
234 0.00200979
237 0.00203973
240 0.00193921
243 0.00203533
246 0.00205073
249 0.00201699
252 0.00200779
255 0.00199827
258 0.00202289
261 0.00208266
264 0.00209317
267 0.0020735
270 0.00207066
273 0.00209305
276 0.00229442
279 0.0023011
282 0.00238482
285 0.00243284
288 0.00248371
291 0.00246592
294 0.00246926
297 0.00227569
300 0.00216066
303 0.00205344
306 0.00192153
309 0.00187068
312 0.00199299
315 0.00203706
318 0.00198172
321 0.00226427
324 0.00287686
327 0.00595544
330 0.0314814
333 0.104979
336 0.0670474
339 0.00912717
342 0.00291755
345 0.0018739
348 0.00144421
351 0.0012853
354 0.00136557
357 0.00227604
360 0.00432174
363 0.00335605
366 0.00195364
369 0.00114865
372 0.000765773
375 0.000721339
378 0.000659628
381 0.000724887
384 0.000766686
387 0.000792235
390 0.000765611
393 0.000726269
396 0.000814085
399 0.000689737
402 0.000829221
405 0.000876607
408 0.000909126
411 0.00114382
414 0.00133174
417 0.00131426
420 0.0011703
423 0.00120453
426 0.00153318
429 0.00122608
432 0.00134411
435 0.00129642
438 0.00157
441 0.00179678
444 0.00216572
447 0.00259961
450 0.00313933
453 0.00363006
456 0.00465771
459 0.00625782
462 0.00992875
465 0.0201011
468 0.0813627
471 0.630004
474 0.815219
477 0.129135
480 0.0233513
483 0.0102043
486 0.00627479
489 0.00462973
492 0.00330853
495 0.00247773
498 0.00194756
501 0.00163434
504 0.00178125
507 0.00210027
510 0.00245312
513 0.00223553
516 0.00171668
519 0.000916146
522 0.000505774
525 0.00055129
528 0.000288381
531 0.000224524
534 0.000248554
537 0.000127913
540 0.000203977
543 0.00022468
546 0.000242195
549 0.000204228
552 0.000391402
555 0.000514786
558 0.000805858
561 0.000942294
564 0.00166686
567 0.00207103
570 0.00371208
573 0.00960159
576 0.0598644
579 0.36724
582 0.12779
585 0.014343
588 0.00463722
591 0.00267371
594 0.00170661
597 0.00122578
600 0.000892717
603 0.000699749
606 0.000479242
609 0.000453578
612 0.000511692
615 0.000466483
618 0.000592935
621 0.00105305
624 0.00190048
627 0.00167739
630 0.0013895
633 0.00133777
636 0.0015265
639 0.0013289
642 0.00145645
645 0.00173039
648 0.0021205
651 0.00334053
654 0.00475874
657 0.00823107
660 0.0173152
663 0.062193
666 0.194184
669 0.264751
672 0.289446
675 0.0726675
678 0.0160704
681 0.00690571
684 0.00431365
687 0.00315559
690 0.0032185
693 0.00299307
696 0.00171352
699 0.00113755
702 0.000908475
705 0.000631162
708 0.000499401
711 0.000435323
714 0.000382647
717 0.000231327
720 0.000427218
723 0.00064421
726 0.000801642
729 0.000595451
732 0.00115819
735 0.00172162
738 0.00341696
741 0.0089043
744 0.0400997
747 0.0970207
750 0.114263
753 0.0408523
756 0.0070176
759 0.00236118
762 0.00121711
765 0.000880127
768 0.000557361
771 0.000584131
774 0.000609539
777 0.000719946
780 0.00065185
783 0.000975106
786 0.00102026
789 0.00131674
792 0.00161033
795 0.00215284
798 0.00267704
801 0.00356625
804 0.00506695
807 0.0077194
810 0.0135995
813 0.035628
816 0.166836
819 0.474277
822 0.502377
825 0.104152
828 0.022188
831 0.00970093
834 0.00602109
837 0.00400776
840 0.00279505
843 0.00207934
846 0.00168693
849 0.00119727
852 0.000928838
855 0.000664094
858 0.000830926
861 0.000607286
864 0.000689665
867 0.000478683
870 0.000175898
873 0.000209951
876 0.000136242
879 0.000313779
882 0.000585781
885 0.000634704
888 0.000400109
891 0.000304614
894 0.000368927
897 7.75259e-05
900 0.000283681
903 0.000186791
906 0.000141248
909 0.00020256
912 0.000220304
915 0.000409973
918 0.00065062
921 0.000608447
924 0.00092091
927 0.00152969
930 0.00229152
933 0.00385795
936 0.00653101
939 0.0158846
942 0.0633574
945 0.228077
948 0.316708
951 0.151475
954 0.0301226
957 0.00943989
960 0.00486791
963 0.00309115
966 0.00197225
969 0.00155323
972 0.00145907
975 0.00162525
978 0.00192869
981 0.00138841
984 0.00128054
987 0.00122087
990 0.00163175
993 0.00282161
996 0.00560133
999 0.016259
1002 0.0532312
1005 0.0990716
1008 0.0549546
1011 0.0145609
1014 0.00399039
1017 0.00220533
1020 0.0014658
1023 0.000931838
1026 0.00101366
1029 0.00116762
1032 0.00140628
1035 0.00168066
1038 0.00265042
1041 0.00330811
1044 0.00516537
1047 0.00993918
1050 0.0252036
1053 0.0806978
1056 0.143701
1059 0.160697
1062 0.194446
1065 0.112464
1068 0.0248056
1071 0.00937926
1074 0.0051596
1077 0.00350317
1080 0.00293866
1083 0.0022772
1086 0.00231418
1089 0.0020456
1092 0.0023461
1095 0.00289952
1098 0.00415242
1101 0.00865829
1104 0.0266985
1107 0.0681306
1110 0.0900833
1113 0.105078
1116 0.0740487
1119 0.015617
1122 0.00494965
1125 0.00246405
1128 0.00153372
1131 0.00113045
1134 0.000810661
1137 0.000950901
1140 0.00100154
1143 0.00124088
1146 0.001658
1149 0.0025229
1152 0.00472639
1155 0.0130144
1158 0.0671021
1161 0.165371
1164 0.0571565
1167 0.00945078
1170 0.00349956
1173 0.00200117
1176 0.00144384
1179 0.000992039
1182 0.000914897
1185 0.000876651
1188 0.0008402
1191 0.00120665
1194 0.0016787
1197 0.00293976
1200 0.00589318
1203 0.0187784
1206 0.0325366
1209 0.0402101
1212 0.0316953
1215 0.0101984
1218 0.00334517
1221 0.00242792
1224 0.00206872
1227 0.00249857
1230 0.00278576
1233 0.00331285
1236 0.00458122
1239 0.00680869
1242 0.011124
1245 0.0245312
1248 0.0836677
1251 0.213445
1254 0.304077
1257 0.266638
1260 0.0813533
1263 0.020768
1266 0.00927211
1269 0.00565156
1272 0.00350529
1275 0.00231236
1278 0.00171009
1281 0.00140799
1284 0.00105386
1287 0.000642367
1290 0.000619875
1293 0.000630259
1296 0.000366039
1299 0.000429171
1302 0.000399437
1305 0.000145784
1308 0.000751765
1311 0.000494283
1314 0.000518116
1317 0.000407165
1320 0.000853908
1323 0.00119531
1326 0.00208176
1329 0.00519417
1332 0.0127123
1335 0.0195337
1338 0.0237727
1341 0.0221238
1344 0.026591
1347 0.0326313
1350 0.0105472
1353 0.00358823
1356 0.00215077
1359 0.00143707
1362 0.00136193
1365 0.00159166
1368 0.00243039
1371 0.0052866
1374 0.0123509
1377 0.0240158
1380 0.044519
1383 0.0558686
1386 0.0403942
1389 0.0205283
1392 0.00617445
1395 0.00288905
1398 0.00254924
1401 0.0027788
1404 0.00332663
1407 0.00524295
1410 0.0099266
1413 0.0255538
1416 0.0559558
1419 0.0905201
1422 0.109451
1425 0.109621
1428 0.0964704
1431 0.0290008
1434 0.0100721
1437 0.00538003
1440 0.00365442
1443 0.00306741
1446 0.00300479
1449 0.00314923
1452 0.00532686
1455 0.0135902
1458 0.0352004
1461 0.0596303
1464 0.0507271
1467 0.0226856
1470 0.00646099
1473 0.00341174
1476 0.00266905
1479 0.0031712
1482 0.00362129
1485 0.00536633
1488 0.0110501
1491 0.0295431
1494 0.0597165
1497 0.0780325
1500 0.0852062
1503 0.100443
1506 0.0704241
1509 0.0198472
1512 0.00748418
1515 0.00436203
1518 0.00327253
1521 0.0028964
1524 0.00357426
1527 0.00734819
1530 0.0180889
1533 0.0273569
1536 0.030636
1539 0.034746
1542 0.031602
1545 0.0100746
1548 0.00317676
1551 0.00205296
1554 0.00174735
1557 0.00155885
1560 0.00200075
1563 0.00436006
1566 0.0103682
1569 0.0354701
1572 0.0886664
1575 0.0903412
1578 0.0316441
1581 0.00783372
1584 0.00335088
1587 0.00195296
1590 0.00154793
1593 0.000832186
1596 0.000498913
1599 0.000269085
1602 0.000402136
1605 0.00040424
1608 0.00058638
1611 0.000367265
1614 0.000846342
1617 0.000955564
1620 0.00102509
1623 0.00145519
1626 0.00207582
1629 0.00349037
1632 0.00616918
1635 0.0160975
1638 0.0440573
1641 0.0663347
1644 0.0803184
1647 0.0902681
1650 0.0345168
1653 0.00961471
1656 0.00481508
1659 0.00333385
1662 0.00303199
1665 0.00334175
1668 0.00567947
1671 0.0100746
1674 0.0143945
1677 0.0174551
1680 0.0171483
1683 0.0140968
1686 0.00819325
1689 0.00508507
1692 0.00578617
1695 0.00795438
1698 0.0154998
1701 0.030269
1704 0.0598588
1707 0.0947269
1710 0.121121
1713 0.124709
1716 0.104433
1719 0.0563259
1722 0.0195082
1725 0.0093759
1728 0.00733019
1731 0.00832275
1734 0.0122254
1737 0.0158692
1740 0.0217275
1743 0.0290748
1746 0.0258973
1749 0.023148
1752 0.0157427
1755 0.00497908
1758 0.00233116
1761 0.000963385
1764 0.000841459
1767 0.000665204
1770 0.000319186
1773 0.000278027
1776 0.00025193
1779 0.000320926
1782 0.000225178
1785 0.000368317
1788 0.000407133
1791 0.00129046
1794 0.00252461
1797 0.00590331
1800 0.0115833
1803 0.023054
1806 0.0318781
1809 0.0358033
1812 0.0270317
1815 0.0134994
1818 0.00601711
1821 0.00502651
1824 0.00712788
1827 0.0159772
1830 0.0309557
1833 0.0417878
1836 0.0467569
1839 0.0456922
1842 0.0549441
1845 0.0589752
1848 0.0227273
1851 0.00731731
1854 0.00361917
1857 0.00217244
1860 0.00131639
1863 0.000876397
1866 0.000762232
1869 0.000526559
1872 0.000239403
1875 0.000390667
1878 0.000554275
1881 0.000708848
1884 0.000866426
1887 0.00207636
1890 0.00507405
1893 0.0112271
1896 0.0196612
1899 0.0245843
1902 0.0219035
1905 0.0149718
1908 0.00648832
1911 0.00280205
1914 0.00240862
1917 0.00324009
1920 0.00645591
1923 0.0106912
1926 0.0148976
1929 0.016574
1932 0.0165845
1935 0.0131995
1938 0.005692
1941 0.00406398
1944 0.00539477
1947 0.00914114
1950 0.0188678
1953 0.0341089
1956 0.0544883
1959 0.0684641
1962 0.0514527
1965 0.0269415
1968 0.011289
1971 0.00621524
1974 0.00655182
1977 0.0111741
1980 0.0187442
1983 0.0225802
1986 0.0252934
1989 0.0284933
1992 0.0271328
1995 0.0154512
1998 0.00691966
2001 0.00671404
2004 0.00841125
2007 0.0138391
2010 0.0267434
2013 0.0453785
2016 0.0537195
2019 0.040173
2022 0.0222116
2025 0.0123398
2028 0.00688873
2031 0.0054568
2034 0.00557687
2037 0.00599926
2040 0.00592295
2043 0.00535715
2046 0.00514066
2049 0.00735231
2052 0.00930833
2055 0.00924283
2058 0.0127353
2061 0.021231
2064 0.0370458
2067 0.0472089
2070 0.0520381
2073 0.0580874
2076 0.0562265
2079 0.0354512
2082 0.0147416
2085 0.0065386
2088 0.00354857
2091 0.00267887
2094 0.00258493
2097 0.00187979
2100 0.00230608
2103 0.00233556
2106 0.00248052
2109 0.00455165
2112 0.00863455
2115 0.0120498
2118 0.0148026
2121 0.0170233
2124 0.0164269
2127 0.0166481
2130 0.0215529
2133 0.0256502
2136 0.0142233
2139 0.00908059
2142 0.0107237
2145 0.0137986
2148 0.0180778
2151 0.0223513
2154 0.0205754
2157 0.0170002
2160 0.0136187
2163 0.00747258
2166 0.00797905
2169 0.0149326
2172 0.0237213
2175 0.0322209
2178 0.0383653
2181 0.0347721
2184 0.0260485
2187 0.0127114
2190 0.00528122
2193 0.00416281
2196 0.0057167
2199 0.00936325
2202 0.010945
2205 0.0133592
2208 0.0120963
2211 0.00611425
2214 0.00414867
2217 0.00664945
2220 0.0104393
2223 0.0133494
2226 0.0150247
2229 0.0152939
2232 0.016059
2235 0.0221416
2238 0.0180904
2241 0.00794116
2244 0.0062349
2247 0.00844518
2250 0.0110822
2253 0.0136151
2256 0.0149888
2259 0.0136685
2262 0.0101693
2265 0.00765292
2268 0.0101276
2271 0.014564
2274 0.0174546
2277 0.0191021
2280 0.0196982
2283 0.022169
2286 0.0257076
2289 0.0176515
2292 0.00612222
2295 0.00239924
2298 0.00156108
2301 0.000738491
2304 0.00042008
2307 0.000631137
2310 0.000390282
2313 0.000296255
2316 0.000584789
2319 0.000891118
2322 0.00160168
2325 0.00451897
2328 0.0102478
2331 0.0116892
2334 0.00575456
2337 0.00262681
2340 0.00269602
2343 0.00418586
2346 0.0061654
2349 0.00684577
2352 0.00699719
2355 0.00762647
2358 0.00970543
2361 0.0112505
2364 0.0102017
2367 0.0115071
2370 0.0186446
2373 0.0305475
2376 0.0417368
2379 0.0481039
2382 0.0396336
2385 0.0250566
2388 0.0190302
2391 0.0123578
2394 0.0109216
2397 0.0114765
2400 0.0125477
2403 0.0120333
2406 0.0111686
2409 0.0110533
2412 0.0106133
2415 0.00989706
2418 0.0109429
2421 0.0117299
2424 0.0141183
2427 0.0155169
2430 0.0158839
2433 0.0140439
2436 0.00958178
2439 0.00850354
2442 0.00843689
2445 0.00860073
2448 0.00932609
2451 0.00996793
2454 0.0124742
2457 0.014507
2460 0.0157767
2463 0.0200413
2466 0.0256614
2469 0.0302995
2472 0.0326923
2475 0.0322708
2478 0.0318774
2481 0.0261155
2484 0.0130718
2487 0.00574637
2490 0.0034924
2493 0.00295836
2496 0.0026409
2499 0.00238328
2502 0.00299632
2505 0.00514674
2508 0.010505
2511 0.0161156
2514 0.0199169
2517 0.0242049
2520 0.0273336
2523 0.0266012
2526 0.018169
2529 0.00793495
2532 0.00536713
2535 0.00574238
2538 0.00689352
2541 0.00727158
2544 0.00611676
2547 0.00572625
2550 0.00641888
2553 0.00518101
2556 0.00543244
2559 0.00594885
2562 0.0057567
2565 0.00572773
2568 0.00781706
2571 0.0104056
2574 0.00934504
2577 0.00858007
2580 0.0100124
2583 0.0119801
2586 0.0119132
2589 0.0108595
2592 0.00987625
2595 0.00710886
2598 0.0023099
2601 0.0014963
2604 0.000366191
2607 0.000396354
2610 5.82069e-05
2613 0.000839016
2616 0.00186535
2619 0.00287792
2622 0.00556529
2625 0.00687955
2628 0.00759847
2631 0.00884195
2634 0.00941495
2637 0.0104656
2640 0.013438
2643 0.0165686
2646 0.0202603
2649 0.0239993
2652 0.0234442
2655 0.0235156
2658 0.023151
2661 0.0126844
2664 0.00444687
2667 0.00234119
2670 0.00148148
2673 0.00115255
2676 0.000381157
2679 0.00051833
2682 0.000998942
2685 0.000412111
2688 0.00081486
2691 0.0011387
2694 0.00123463
2697 0.00182145
2700 0.00307323
2703 0.00422218
2706 0.00626118
2709 0.0067776
2712 0.00765766
2715 0.00861503
2718 0.00949153
2721 0.0106462
2724 0.0129859
2727 0.0136733
2730 0.0161859
2733 0.0205841
2736 0.0227109
2739 0.0213554
2742 0.0178165
2745 0.0156829
2748 0.0108726
2751 0.00633942
2754 0.0050848
2757 0.00537616
2760 0.00597644
2763 0.00737827
2766 0.00764331
2769 0.00859618
2772 0.0113395
2775 0.0129608
2778 0.0162081
2781 0.0159697
2784 0.0129848
2787 0.0124339
2790 0.0107318
2793 0.00735231
2796 0.0058891
2799 0.00506775
2802 0.0054773
2805 0.00598862
2808 0.00775469
2811 0.00869713
2814 0.00996979
2817 0.0129727
2820 0.014118
2823 0.0109758
2826 0.0059462
2829 0.00193634
2832 0.000750727
2835 0.00129148
2838 0.000874799
2841 0.000993072
2844 0.00192301
2847 0.0042868
2850 0.00491446
2853 0.00579534
2856 0.00692911
2859 0.00781876
2862 0.00753364
2865 0.00856606
2868 0.0100595
2871 0.00814492
2874 0.00559912
2877 0.00543718
2880 0.00658182
2883 0.00688131
2886 0.010412
2889 0.013988
2892 0.016397
2895 0.0171557
2898 0.0175394
2901 0.0186416
2904 0.0206454
2907 0.0209155
2910 0.0156495
2913 0.00969059
2916 0.00867666
2919 0.00749229
2922 0.00843182
2925 0.0063558
2928 0.00632562
2931 0.0051674
2934 0.00689514
2937 0.00696952
2940 0.00759687
2943 0.00727528
2946 0.00656653
2949 0.00543437
2952 0.0053775
2955 0.00603325
2958 0.00642955
2961 0.00686245
2964 0.00672627
2967 0.00674741
2970 0.00630998
2973 0.0065371
2976 0.00719342
2979 0.00793347
2982 0.0072261
2985 0.0058838
2988 0.00316227
2991 0.000833623
2994 0.000000000000000000e+00
2997 0.00091791
3000 0.00199733
3003 0.00191053
3006 0.00245738
3009 0.00352732
3012 0.00420745
3015 0.00421078
3018 0.00483107
3021 0.00617055
3024 0.0076979
3027 0.0073384
3030 0.00663391
3033 0.0063381
3036 0.00678517
3039 0.00743573
3042 0.00741709
3045 0.00697193
3048 0.00604546
3051 0.00544605
3054 0.00587518
3057 0.00583641
3060 0.00867978
3063 0.0097332
3066 0.00895834
3069 0.00758004
3072 0.00848926
3075 0.00861494
3078 0.00896014
3081 0.00950568
3084 0.00904634
3087 0.00821932
3090 0.00794459
3093 0.00810423
3096 0.0097477
3099 0.0106979
3102 0.00906059
3105 0.00567077
3108 0.00550487
3111 0.00579185
3114 0.00656322
3117 0.00834216
3120 0.0102733
3123 0.0127093
3126 0.0143662
3129 0.01505
3132 0.0127833
3135 0.0103688
3138 0.00869231
3141 0.00720302
3144 0.00407188
3147 0.00276556
3150 0.0011707
3153 0.00260934
3156 0.00305393
3159 0.00533299
3162 0.00703914
3165 0.00769194
3168 0.00860636
3171 0.00656411
3174 0.00692213
3177 0.00530787
3180 0.00411554
3183 0.00607985
3186 0.00818328
3189 0.00975829
3192 0.011862
3195 0.0119866
3198 0.0127205
3201 0.0131352
3204 0.0138197
3207 0.0129424
3210 0.0108899
3213 0.00743185
3216 0.00455109
3219 0.00494382
3222 0.00213009
3225 0.00217049
3228 0.00435608
3231 0.00384588
3234 0.00187241
3237 0.000980764
3240 0.000523626
3243 0.00057853
3246 0.00155918
3249 0.00260354
3252 0.00333272
3255 0.00361209
3258 0.00299319
3261 0.00490212
3264 0.00603962
3267 0.00686419
3270 0.0078683
3273 0.0085202
3276 0.00868715
3279 0.00756593
3282 0.00499479
3285 0.00444554
3288 0.00137022
3291 0.00166646
3294 0.00092436
3297 0.000676759
3300 0.00266106
3303 0.00395428
3306 0.00191603
3309 0.00369787
3312 0.00203515
3315 0.00351275
3318 0.00357472
3321 0.0027402
3324 0.00354885
3327 0.00353554
3330 0.00393645
3333 0.00502313
3336 0.00709071
3339 0.00770651
3342 0.00660605
3345 0.00741862
3348 0.00862023
3351 0.00939592
3354 0.00920745
3357 0.00671703
3360 0.00602319
3363 0.00500563
3366 0.00447841
3369 0.00403149
3372 0.00293867
3375 0.00445962
3378 0.00434623
3381 0.00526144
3384 0.00525577
3387 0.00522841
3390 0.00375787
3393 0.0051036
3396 0.00509163
3399 0.00761727
3402 0.00763945
3405 0.0044507
3408 0.00316594
3411 0.00370457
3414 0.00270914
3417 0.00262216
3420 0.000595423
3423 0.00405299
3426 9.34136e-05
3429 0.00285094
3432 0.00366892
3435 0.0019154
3438 0.00607087
3441 0.00853082
3444 0.00742325
3447 0.00834759
3450 0.0127306
3453 0.00715651
3456 0.00843281
3459 0.00621981
3462 0.00821187
3465 0.0050069
3468 0.00725974
3471 0.0119729
3474 0.0117216
3477 0.00769023
3480 0.0104813
3483 0.00479672
3486 0.0161743
3487 0.0191706