File: constrainednmf/example_data/BaTiO3_xrd_ramp/BTO_425K_tth.xy
0.000000000000000000e+00 0.000301793
3 0.000402368
6 0.000639747
9 0.00265318
12 0.0120294
15 0.0137402
18 0.013079
21 0.0123985
24 0.0128109
27 0.0126703
30 0.0103019
33 0.00423916
36 0.0030653
39 0.00304861
42 0.00316986
45 0.00318787
48 0.00308435
51 0.00308934
54 0.00315068
57 0.00318622
60 0.00323478
63 0.00329829
66 0.00326395
69 0.00327575
72 0.00335655
75 0.00339517
78 0.00350451
81 0.00363731
84 0.00369206
87 0.00369941
90 0.00367857
93 0.00358254
96 0.00351923
99 0.0034522
102 0.00346102
105 0.00347003
108 0.00339211
111 0.00338919
114 0.00331882
117 0.0033089
120 0.0032479
123 0.00323112
126 0.00314266
129 0.00314792
132 0.00318917
135 0.00314155
138 0.00311252
141 0.00305401
144 0.00296339
147 0.00297003
150 0.00294949
153 0.00295405
156 0.00288342
159 0.00283458
162 0.00279714
165 0.0027691
168 0.00274256
171 0.00267965
174 0.0025987
177 0.00265069
180 0.0025898
183 0.00246445
186 0.00247644
189 0.00246721
192 0.00246867
195 0.00246829
198 0.00245723
201 0.00237933
204 0.00236136
207 0.00225845
210 0.0022442
213 0.00226292
216 0.00230577
219 0.00223821
222 0.00225307
225 0.00220509
228 0.00218502
231 0.00223259
234 0.00220609
237 0.00222274
240 0.0022303
243 0.00227092
246 0.00235388
249 0.00234814
252 0.00234888
255 0.0023032
258 0.00228773
261 0.00240995
264 0.00230035
267 0.00243311
270 0.00248139
273 0.00259344
276 0.002535
279 0.00263278
282 0.00275173
285 0.00275039
288 0.00274763
291 0.00273485
294 0.00260036
297 0.00258065
300 0.00237037
303 0.00226834
306 0.00212927
309 0.00204592
312 0.00216171
315 0.00216755
318 0.00219749
321 0.00231735
324 0.00296571
327 0.00593174
330 0.0283861
333 0.117517
336 0.0496008
339 0.00702334
342 0.00268541
345 0.00190947
348 0.00157699
351 0.00142483
354 0.00155493
357 0.00274279
360 0.00413292
363 0.00305877
366 0.00178199
369 0.00112289
372 0.000899865
375 0.000851068
378 0.000863489
381 0.000921387
384 0.000975186
387 0.000951329
390 0.00087572
393 0.000913132
396 0.000945188
399 0.000881677
402 0.0009534
405 0.000929675
408 0.000991229
411 0.00134059
414 0.00139013
417 0.00140782
420 0.00110006
423 0.00132046
426 0.00153512
429 0.00124469
432 0.00132578
435 0.0014566
438 0.00170479
441 0.00197298
444 0.00215886
447 0.00247847
450 0.0031725
453 0.00388519
456 0.00485765
459 0.00660003
462 0.0100193
465 0.020731
468 0.0823807
471 0.679152
474 0.70776
477 0.0888333
480 0.0195052
483 0.00934147
486 0.00599295
489 0.00431627
492 0.00328521
495 0.00258998
498 0.00209563
501 0.00178234
504 0.00195339
507 0.00243573
510 0.00248933
513 0.00212845
516 0.00170082
519 0.000899718
522 0.000619657
525 0.00063455
528 0.000500197
531 0.000447253
534 0.000326724
537 0.000364338
540 0.000493016
543 0.000402197
546 0.000431448
549 0.000423647
552 0.000627546
555 0.000815173
558 0.000937531
561 0.00126163
564 0.00173129
567 0.00249207
570 0.00392983
573 0.0108832
576 0.0712468
579 0.368756
582 0.0885745
585 0.0117642
588 0.00428718
591 0.00260209
594 0.00184547
597 0.00143266
600 0.00105617
603 0.000870189
606 0.000888075
609 0.00051672
612 0.00073524
615 0.000897039
618 0.000734594
621 0.00139254
624 0.00202691
627 0.00170602
630 0.00142488
633 0.00153811
636 0.00174531
639 0.00161177
642 0.00189197
645 0.00191686
648 0.0023088
651 0.00368732
654 0.00550169
657 0.00864697
660 0.0169545
663 0.0470566
666 0.162951
669 0.387459
672 0.197143
675 0.0345069
678 0.0113934
681 0.00600304
684 0.00440605
687 0.00366758
690 0.00345774
693 0.00227084
696 0.0019327
699 0.00126624
702 0.00115505
705 0.00104114
708 0.00094493
711 0.000595557
714 0.000828799
717 0.000858027
720 0.000932714
723 0.000978104
726 0.000798797
729 0.00112342
732 0.00149026
735 0.00204622
738 0.00350694
741 0.00848413
744 0.0316609
747 0.114335
750 0.108212
753 0.0191242
756 0.00503984
759 0.00218207
762 0.00148255
765 0.00119014
768 0.00101065
771 0.00100275
774 0.0010533
777 0.00109223
780 0.00116784
783 0.00120098
786 0.00148555
789 0.00178675
792 0.00207805
795 0.00264066
798 0.00297703
801 0.00412608
804 0.00556058
807 0.00825544
810 0.0148703
813 0.0363313
816 0.151247
819 0.580332
822 0.352002
825 0.0546672
828 0.0165709
831 0.00833944
834 0.00541624
837 0.00394683
840 0.00297589
843 0.00249562
846 0.0018432
849 0.00169914
852 0.00126779
855 0.00142211
858 0.00115519
861 0.00112715
864 0.00077316
867 0.000686386
870 0.000580547
873 0.000512568
876 0.000758782
879 0.000725128
882 0.000872017
885 0.000731605
888 0.000658372
891 0.000500172
894 0.000438945
897 0.000441061
900 0.000520728
903 0.000404163
906 0.000405631
909 0.000371364
912 0.000472251
915 0.000636866
918 0.000755045
921 0.00111685
924 0.00147247
927 0.00177265
930 0.00262244
933 0.0039392
936 0.0073307
939 0.0162595
942 0.0567978
945 0.26536
948 0.318972
951 0.0756987
954 0.0177427
957 0.00729063
960 0.00435889
963 0.00291081
966 0.00172632
969 0.00142569
972 0.00166337
975 0.00178138
978 0.00121394
981 0.00147663
984 0.00110783
987 0.00113991
990 0.00163714
993 0.00282524
996 0.00524787
999 0.0140167
1002 0.0574063
1005 0.109363
1008 0.031446
1011 0.00713256
1014 0.00287406
1017 0.00174113
1020 0.00158551
1023 0.00115763
1026 0.0014501
1029 0.00132207
1032 0.00154782
1035 0.00160643
1038 0.00263221
1041 0.00371622
1044 0.00578909
1047 0.0100537
1050 0.0205582
1053 0.0544788
1056 0.129429
1059 0.262614
1062 0.16155
1065 0.0369126
1068 0.0132559
1071 0.00689693
1074 0.00418744
1077 0.00333376
1080 0.00245747
1083 0.0022209
1086 0.0022927
1089 0.00216396
1092 0.00232484
1095 0.00312556
1098 0.00449716
1101 0.00808332
1104 0.01974
1107 0.0551828
1110 0.125023
1113 0.114342
1116 0.0253391
1119 0.00755089
1122 0.00359987
1125 0.00221521
1128 0.00160114
1131 0.0012008
1134 0.000783524
1137 0.000995118
1140 0.0010507
1143 0.00117031
1146 0.00156082
1149 0.00242287
1152 0.0050302
1155 0.0158252
1158 0.0859166
1161 0.150457
1164 0.0270404
1167 0.00624411
1170 0.00265999
1173 0.00170592
1176 0.00129378
1179 0.000956011
1182 0.000816231
1185 0.00107225
1188 0.000997291
1191 0.00163244
1194 0.00194154
1197 0.00280305
1200 0.0052023
1203 0.0142992
1206 0.039129
1209 0.0478445
1212 0.015641
1215 0.00490719
1218 0.00300569
1221 0.00252617
1224 0.00227206
1227 0.00274543
1230 0.00294753
1233 0.00367938
1236 0.00479697
1239 0.00738065
1242 0.0119848
1245 0.0242385
1248 0.0677914
1251 0.224083
1254 0.389475
1257 0.141941
1260 0.0330636
1263 0.0134844
1266 0.00734568
1269 0.00452413
1272 0.00338113
1275 0.00241631
1278 0.00182324
1281 0.00146769
1284 0.00100921
1287 0.000874418
1290 0.000806628
1293 0.00107071
1296 0.000363449
1299 0.000544114
1302 0.000471855
1305 0.000705021
1308 0.000465349
1311 0.000475722
1314 0.000722932
1317 0.000206698
1320 0.00108462
1323 0.0010573
1326 0.00206983
1329 0.00372549
1332 0.00791855
1335 0.0154234
1338 0.0231018
1341 0.0459337
1344 0.0309981
1347 0.00887641
1350 0.00359305
1353 0.00225702
1356 0.00169646
1359 0.00119826
1362 0.00131297
1365 0.0014784
1368 0.00248608
1371 0.00410394
1374 0.00876184
1377 0.0200091
1380 0.051069
1383 0.0688473
1386 0.0226492
1389 0.0068621
1392 0.00360785
1395 0.00243373
1398 0.00229153
1401 0.00286762
1404 0.00338292
1407 0.0054112
1410 0.00925115
1413 0.0179825
1416 0.0414639
1419 0.090006
1422 0.160201
1425 0.109423
1428 0.0297215
1431 0.0114195
1434 0.00647028
1437 0.00419545
1440 0.0031629
1443 0.00286986
1446 0.00288587
1449 0.00317251
1452 0.00513543
1455 0.0117073
1458 0.038918
1461 0.0709311
1464 0.0332864
1467 0.00889448
1470 0.00409598
1473 0.00320342
1476 0.00274795
1479 0.00320422
1482 0.00406622
1485 0.00589295
1488 0.00962647
1491 0.0195523
1494 0.0465266
1497 0.0869846
1500 0.145147
1503 0.0697121
1506 0.0206636
1509 0.00854983
1512 0.00522483
1515 0.00368409
1518 0.00307432
1521 0.00315471
1524 0.0038171
1527 0.00583998
1530 0.0122095
1533 0.0249096
1536 0.0467058
1539 0.0365801
1542 0.0104195
1545 0.00434176
1548 0.00242823
1551 0.00188183
1554 0.00202763
1557 0.00215252
1560 0.00282061
1563 0.00512605
1566 0.0108061
1569 0.0383011
1572 0.107161
1575 0.0564846
1578 0.0123062
1581 0.00472722
1584 0.00304228
1587 0.00212986
1590 0.0015572
1593 0.00132018
1596 0.000830005
1599 0.0010955
1602 0.00130089
1605 0.00121581
1608 0.000828363
1611 0.00113835
1614 0.00134715
1617 0.00131305
1620 0.00136474
1623 0.00228941
1626 0.0030555
1629 0.00437185
1632 0.00687439
1635 0.0142755
1638 0.0357756
1641 0.079444
1644 0.117048
1647 0.0381438
1650 0.0117581
1653 0.00615501
1656 0.00433988
1659 0.0032489
1662 0.00339189
1665 0.00399172
1668 0.00499901
1671 0.00838927
1674 0.0158557
1677 0.0238465
1680 0.0164209
1683 0.00683816
1686 0.00453972
1689 0.0053933
1692 0.00592284
1695 0.00807923
1698 0.0123719
1701 0.0225358
1704 0.0451892
1707 0.094685
1710 0.167431
1713 0.128779
1716 0.0440655
1719 0.0174992
1722 0.00988715
1725 0.00694982
1728 0.00574577
1731 0.00670342
1734 0.00837503
1737 0.0136163
1740 0.0211955
1743 0.0419016
1746 0.0304297
1749 0.0106495
1752 0.00452411
1755 0.00288733
1758 0.00158991
1761 0.00136171
1764 0.00124461
1767 0.00068903
1770 0.00056837
1773 0.000767872
1776 0.000651204
1779 0.000357358
1782 0.000570195
1785 0.000820406
1788 0.00117229
1791 0.00164123
1794 0.00276762
1797 0.00470693
1800 0.00968688
1803 0.0206554
1806 0.0433508
1809 0.0360299
1812 0.0117301
1815 0.00503183
1818 0.00425842
1821 0.00488153
1824 0.00631615
1827 0.010644
1830 0.0202365
1833 0.0331658
1836 0.0525542
1839 0.0853536
1842 0.0468569
1845 0.0153374
1848 0.00706529
1851 0.00370506
1854 0.00257677
1857 0.00159756
1860 0.000928294
1863 0.000771965
1866 0.000972157
1869 0.000465558
1872 0.000379417
1875 0.000410392
1878 0.000793056
1881 0.000681389
1884 0.000896015
1887 0.00201787
1890 0.00407529
1893 0.0099528
1896 0.0249744
1899 0.0276125
1902 0.0151854
1905 0.00580745
1908 0.00265655
1911 0.00214656
1914 0.00196622
1917 0.00241713
1920 0.00428628
1923 0.00902765
1926 0.0175958
1929 0.0216825
1932 0.011379
1935 0.00453393
1938 0.0035037
1941 0.00328134
1944 0.00443544
1947 0.00725999
1950 0.0146862
1953 0.0322543
1956 0.0702907
1959 0.0654888
1962 0.0231826
1965 0.00927922
1968 0.00571107
1971 0.00483561
1974 0.00524622
1977 0.00796253
1980 0.0140885
1983 0.0232605
1986 0.0376339
1989 0.0274435
1992 0.0110746
1995 0.00556334
1998 0.00426035
2001 0.00498561
2004 0.00713713
2007 0.0114288
2010 0.0261331
2013 0.0563097
2016 0.0527098
2019 0.0214966
2022 0.00851221
2025 0.00469195
2028 0.00382475
2031 0.00391213
2034 0.00439736
2037 0.00432344
2040 0.00523751
2043 0.00859272
2046 0.00786109
2049 0.00541171
2052 0.00508303
2055 0.00596455
2058 0.00931065
2061 0.0152222
2064 0.027097
2067 0.045694
2070 0.0787937
2073 0.0613623
2076 0.0222903
2079 0.00959325
2082 0.0058753
2085 0.0034427
2088 0.00290332
2091 0.00248113
2094 0.00185832
2097 0.00176819
2100 0.00199006
2103 0.00187548
2106 0.00239737
2109 0.00348166
2112 0.0050588
2115 0.00824646
2118 0.0118194
2121 0.0147721
2124 0.0278354
2127 0.030238
2130 0.0141916
2133 0.00685726
2136 0.0050785
2139 0.00528991
2142 0.00713376
2145 0.01023
2148 0.0188915
2151 0.0279073
2154 0.0189897
2157 0.00797766
2160 0.00495639
2163 0.00436173
2166 0.00553973
2169 0.00984293
2172 0.0210113
2175 0.0394904
2178 0.0407995
2181 0.0220277
2184 0.00859964
2187 0.00464924
2190 0.00273609
2193 0.00283674
2196 0.00456852
2199 0.00779851
2202 0.014261
2205 0.0120468
2208 0.00423861
2211 0.00266416
2214 0.00277076
2217 0.00442515
2220 0.00698338
2223 0.0102029
2226 0.0145399
2229 0.0266893
2232 0.0222427
2235 0.00852409
2238 0.0042291
2241 0.00344441
2244 0.00374387
2247 0.00585121
2250 0.0101513
2253 0.0168038
2256 0.0150588
2259 0.00739705
2262 0.00406294
2265 0.00370384
2268 0.00506928
2271 0.00936906
2274 0.0139783
2277 0.0211787
2280 0.0344705
2283 0.0224843
2286 0.00842586
2289 0.00380784
2292 0.00234399
2295 0.00123034
2298 0.000909405
2301 0.000656523
2304 0.000232357
2307 0.000483816
2310 0.00039069
2313 0.000658785
2316 0.000824463
2319 0.0009678
2322 0.00221741
2325 0.00583377
2328 0.0124792
2331 0.00639728
2334 0.00228722
2337 0.00203298
2340 0.00222138
2343 0.00320949
2346 0.0046503
2349 0.00590892
2352 0.00974811
2355 0.0115948
2358 0.00695128
2361 0.00537193
2364 0.00664721
2367 0.00932457
2370 0.0146845
2373 0.0288983
2376 0.0515311
2379 0.0455571
2382 0.0204925
2385 0.00998534
2388 0.00716491
2391 0.00658716
2394 0.00747081
2397 0.010461
2400 0.0148483
2403 0.0149674
2406 0.00951328
2409 0.00588416
2412 0.00485104
2415 0.0053619
2418 0.0085119
2421 0.013127
2424 0.0194163
2427 0.0166738
2430 0.00977058
2433 0.00534612
2436 0.00487762
2439 0.00554265
2442 0.00704243
2445 0.00936749
2448 0.0128029
2451 0.0111459
2454 0.00807723
2457 0.00788491
2460 0.00937904
2463 0.0136113
2466 0.0197368
2469 0.0334589
2472 0.0457339
2475 0.0320602
2478 0.0135872
2481 0.00708664
2484 0.00488499
2487 0.00386209
2490 0.00325337
2493 0.00318463
2496 0.00291995
2499 0.00314884
2502 0.00294363
2505 0.00492294
2508 0.00763161
2511 0.0139165
2514 0.0230762
2517 0.0341747
2520 0.0240105
2523 0.00979093
2526 0.00542302
2529 0.00423993
2532 0.00395078
2535 0.0050012
2538 0.00785105
2541 0.00773492
2544 0.00435677
2547 0.00309264
2550 0.00342931
2553 0.00423984
2556 0.00510453
2559 0.00595728
2562 0.00926632
2565 0.00918574
2568 0.00549766
2571 0.00463597
2574 0.00469395
2577 0.00661779
2580 0.00940662
2583 0.015823
2586 0.0152764
2589 0.00832819
2592 0.00357674
2595 0.00149371
2598 0.00164562
2601 0.00108884
2604 0.00133601
2607 0.000506701
2610 0.00163002
2613 0.00195141
2616 0.00150183
2619 0.00214241
2622 0.00430059
2625 0.00745147
2628 0.0101956
2631 0.00732842
2634 0.00474126
2637 0.0051953
2640 0.00780356
2643 0.0136498
2646 0.020616
2649 0.0298118
2652 0.0269907
2655 0.0139316
2658 0.00569124
2661 0.0032397
2664 0.0014817
2667 0.000685744
2670 0.000609236
2673 0.000681841
2676 0.000676623
2679 0.000752386
2682 0.00114789
2685 0.00128766
2688 0.000616025
2691 0.00155295
2694 0.00203811
2697 0.00275348
2700 0.00228347
2703 0.00350838
2706 0.00388104
2709 0.00525608
2712 0.00897147
2715 0.00978571
2718 0.00681411
2721 0.00595863
2724 0.00688115
2727 0.00945941
2730 0.0133728
2733 0.0243878
2736 0.0267463
2739 0.0154156
2742 0.00752926
2745 0.00453456
2748 0.00408624
2751 0.00405809
2754 0.00499177
2757 0.00674195
2760 0.00448046
2763 0.00417871
2766 0.00430312
2769 0.00586259
2772 0.00999517
2775 0.0172385
2778 0.0179271
2781 0.0104034
2784 0.00529787
2787 0.00438502
2790 0.00442265
2793 0.00453125
2796 0.00735545
2799 0.00715342
2802 0.00571695
2805 0.0036435
2808 0.00342691
2811 0.00639413
2814 0.0107428
2817 0.0146493
2820 0.00876088
2823 0.00390605
2826 0.00189276
2829 0.0014128
2832 0.00122198
2835 0.000620104
2838 0.00100346
2841 0.00125726
2844 0.00138086
2847 0.00287462
2850 0.00341396
2853 0.00596235
2856 0.00841981
2859 0.0098714
2862 0.00804686
2865 0.00399245
2868 0.00295034
2871 0.0033502
2874 0.00301394
2877 0.00409536
2880 0.00557742
2883 0.00491896
2886 0.00590152
2889 0.00795773
2892 0.0106387
2895 0.0172379
2898 0.0242721
2901 0.0191404
2904 0.00888644
2907 0.00576323
2910 0.00459717
2913 0.00648828
2916 0.00906606
2919 0.00766177
2922 0.00516071
2925 0.00377292
2928 0.00321116
2931 0.00497049
2934 0.00803744
2937 0.0068272
2940 0.00475355
2943 0.00330286
2946 0.00195754
2949 0.0029269
2952 0.00332561
2955 0.00634865
2958 0.00643199
2961 0.00345101
2964 0.00222615
2967 0.00310642
2970 0.00521915
2973 0.00606868
2976 0.00943819
2979 0.00569496
2982 0.00278256
2985 0.000742398
2988 0.000696812
2991 0.000704712
2994 0.000943495
2997 0.00138156
3000 0.00136112
3003 0.00174361
3006 0.00252842
3009 0.00327587
3012 0.00415953
3015 0.00586511
3018 0.00514978
3021 0.00309312
3024 0.00341138
3027 0.00342732
3030 0.00539659
3033 0.00716551
3036 0.00667482
3039 0.00421968
3042 0.00308272
3045 0.00331689
3048 0.00422237
3051 0.00577604
3054 0.00833871
3057 0.00614031
3060 0.00568429
3063 0.0045493
3066 0.004865
3069 0.0068155
3072 0.00906744
3075 0.00655196
3078 0.00542072
3081 0.00474151
3084 0.00445328
3087 0.00759697
3090 0.0112465
3093 0.0101083
3096 0.00576905
3099 0.00350328
3102 0.00312084
3105 0.00346652
3108 0.00512291
3111 0.00511358
3114 0.00557335
3117 0.00574743
3120 0.00620015
3123 0.0121107
3126 0.0155478
3129 0.0134329
3132 0.00871656
3135 0.00483681
3138 0.00294633
3141 0.00206648
3144 0.00201623
3147 0.00105654
3150 0.00150865
3153 0.00263205
3156 0.00272825
3159 0.00499415
3162 0.00821827
3165 0.00657263
3168 0.00447373
3171 0.00324257
3174 0.00270218
3177 0.00448343
3180 0.00580908
3183 0.00861131
3186 0.00664379
3189 0.0068852
3192 0.0072439
3195 0.0094857
3198 0.0136134
3201 0.0137476
3204 0.00963885
3207 0.00582819
3210 0.00591302
3213 0.00344352
3216 0.00370603
3219 0.0045326
3222 0.00273131
3225 0.00290845
3228 0.000511127
3231 0.000901512
3234 0.00299854
3237 0.0021458
3240 0.00125323
3243 0.00251337
3246 0.00188569
3249 0.00240706
3252 0.0033922
3255 0.00324033
3258 0.00400084
3261 0.00469338
3264 0.00418328
3267 0.00715382
3270 0.00910504
3273 0.00849419
3276 0.00671875
3279 0.00319281
3282 0.00376942
3285 0.00162786
3288 0.00175213
3291 0.0021894
3294 0.0018137
3297 0.00442409
3300 0.0033786
3303 0.00321807
3306 0.00316121
3309 0.00484074
3312 0.00282924
3315 0.00270393
3318 0.00363201
3321 0.00189953
3324 0.00374361
3327 0.00426718
3330 0.00693559
3333 0.00495496
3336 0.00728466
3339 0.00733962
3342 0.008623
3345 0.00910971
3348 0.00471461
3351 0.00333044
3354 0.00451968
3357 0.00563504
3360 0.00764248
3363 0.00554361
3366 0.00335825
3369 0.00444872
3372 0.00241864
3375 0.00428193
3378 0.00543647
3381 0.00505915
3384 0.00442157
3387 0.00276937
3390 0.00520241
3393 0.00674759
3396 0.00769033
3399 0.00334776
3402 0.00299049
3405 0.00576115
3408 0.00310532
3411 0.00268095
3414 0.00283832
3417 0.00156089
3420 0.00152396
3423 0.00427424
3426 0.00510491
3429 0.00408467
3432 0.00333383
3435 0.00629212
3438 0.00579761
3441 0.00702179
3444 0.00858462
3447 0.00532779
3450 0.00674556
3453 0.00488677
3456 0.00065511
3459 0.00683282
3462 0.00833256
3465 0.00891161
3468 0.00540285
3471 0.00901338
3474 0.000342623
3477 0.00907833
3480 0.015203
3483 0.0063105
3486 0.00688685
3487 0.0117931