File: constrainednmf/example_data/BaTiO3_xrd_ramp/BTO_225K_tth.xy
0.000000000000000000e+00 0.000162392
3 0.000315333
6 0.000585803
9 0.00235874
12 0.00981347
15 0.0118748
18 0.0114074
21 0.0108576
24 0.011263
27 0.0112542
30 0.0093138
33 0.00405708
36 0.00303296
39 0.00308988
42 0.00324492
45 0.00328347
48 0.00325332
51 0.0033064
54 0.00328268
57 0.00333721
60 0.00338345
63 0.00347448
66 0.00342511
69 0.00348888
72 0.00351985
75 0.00355468
78 0.00365909
81 0.00376693
84 0.00385032
87 0.00380104
90 0.00374588
93 0.00368167
96 0.00367777
99 0.00356824
102 0.00354202
105 0.00352206
108 0.00347805
111 0.00349463
114 0.00347596
117 0.0034277
120 0.00336744
123 0.0033133
126 0.0032818
129 0.0032284
132 0.00317544
135 0.00322116
138 0.00311623
141 0.00308638
144 0.00302647
147 0.00302476
150 0.0029826
153 0.0029175
156 0.0028475
159 0.0029055
162 0.00280142
165 0.00276936
168 0.00273277
171 0.00265432
174 0.0025978
177 0.00260453
180 0.00253998
183 0.00247278
186 0.00238842
189 0.00236432
192 0.0022853
195 0.00222559
198 0.00225269
201 0.00218202
204 0.00218338
207 0.00205427
210 0.00208514
213 0.0020838
216 0.00209091
219 0.00197765
222 0.00197316
225 0.00205854
228 0.00200445
231 0.00201358
234 0.00192504
237 0.00199859
240 0.00189003
243 0.001918
246 0.00201345
249 0.00200465
252 0.00199892
255 0.00191569
258 0.00202673
261 0.00194801
264 0.0020334
267 0.00203537
270 0.00197964
273 0.00211853
276 0.0021392
279 0.00214744
282 0.00231564
285 0.00235417
288 0.00240327
291 0.00234852
294 0.00244425
297 0.00228892
300 0.00208357
303 0.00196829
306 0.0019935
309 0.00189943
312 0.00191885
315 0.0019521
318 0.00201088
321 0.00212853
324 0.00281101
327 0.00537082
330 0.026682
333 0.108578
336 0.0655333
339 0.00997371
342 0.00382664
345 0.00202964
348 0.00155429
351 0.00144642
354 0.00137357
357 0.00219295
360 0.00426566
363 0.00349599
366 0.00216827
369 0.00119508
372 0.000802242
375 0.000820948
378 0.000764377
381 0.000730405
384 0.000853003
387 0.00161538
390 0.000884966
393 0.000821852
396 0.000847783
399 0.000833912
402 0.000968594
405 0.000897892
408 0.000965119
411 0.0011494
414 0.00131736
417 0.00147405
420 0.0013004
423 0.0012904
426 0.00149971
429 0.00133238
432 0.00119734
435 0.00147982
438 0.00136756
441 0.00177874
444 0.00207625
447 0.00247245
450 0.00306661
453 0.00381622
456 0.00465692
459 0.00618785
462 0.00944331
465 0.0190914
468 0.0767612
471 0.552714
474 0.865226
477 0.133184
480 0.0239274
483 0.0102786
486 0.0066123
489 0.00453925
492 0.00345027
495 0.00250244
498 0.00204718
501 0.0015989
504 0.00171025
507 0.00207943
510 0.00255994
513 0.00239167
516 0.00182842
519 0.0010672
522 0.000638425
525 0.000465104
528 0.000395
531 0.000392418
534 0.000318524
537 0.000354851
540 0.000283265
543 0.000353862
546 0.000381736
549 0.000527138
552 0.000630172
555 0.000710322
558 0.000859991
561 0.00121963
564 0.00163567
567 0.00226022
570 0.00356281
573 0.00905066
576 0.054241
579 0.341459
582 0.144422
585 0.0160606
588 0.00499106
591 0.00293565
594 0.00229869
597 0.00151979
600 0.00110479
603 0.000849616
606 0.000648213
609 0.000709713
612 0.000580257
615 0.00077308
618 0.000813057
621 0.00115189
624 0.00199034
627 0.00173067
630 0.00154603
633 0.00154529
636 0.00152187
639 0.00152665
642 0.00151194
645 0.00172697
648 0.00227576
651 0.00319943
654 0.00460488
657 0.0078654
660 0.0150933
663 0.0434752
666 0.193127
669 0.301452
672 0.226357
675 0.0945664
678 0.0187933
681 0.00749729
684 0.00452844
687 0.00334333
690 0.00319557
693 0.00299939
696 0.00215003
699 0.00123881
702 0.000939373
705 0.000818381
708 0.000896314
711 0.000607993
714 0.000466083
717 0.000631515
720 0.000682023
723 0.000800533
726 0.000805083
729 0.000875863
732 0.00099127
735 0.00186833
738 0.00310622
741 0.0076252
744 0.0323588
747 0.105133
750 0.102351
753 0.0464741
756 0.00834858
759 0.00270477
762 0.0013731
765 0.000873376
768 0.00061707
771 0.000695673
774 0.000805809
777 0.000659806
780 0.000805251
783 0.00100947
786 0.00106497
789 0.00135993
792 0.00144855
795 0.0020535
798 0.00274528
801 0.00329702
804 0.00486074
807 0.00717915
810 0.0125737
813 0.0308343
816 0.139037
819 0.483142
822 0.472853
825 0.127087
828 0.0248122
831 0.00982578
834 0.00586906
837 0.00396435
840 0.00300515
843 0.00219873
846 0.00176468
849 0.00115176
852 0.000742269
855 0.000874339
858 0.000713156
861 0.000805756
864 0.00053721
867 0.000421001
870 0.000483015
873 0.000306023
876 0.000235333
879 0.000471439
882 0.000634166
885 0.000580005
888 0.000660677
891 0.000386581
894 0.000258942
897 0.000276105
900 0.000326494
903 0.000327301
906 0.00017084
909 0.000182913
912 0.000356878
915 0.000383112
918 0.000469877
921 0.000785761
924 0.00118543
927 0.00155352
930 0.002288
933 0.00330684
936 0.00633148
939 0.0154202
942 0.0637819
945 0.179002
948 0.338711
951 0.164728
954 0.0305469
957 0.0100798
960 0.00510676
963 0.00306165
966 0.00209908
969 0.00167406
972 0.00141431
975 0.00178906
978 0.00180791
981 0.00164669
984 0.00145432
987 0.00127881
990 0.00149855
993 0.00231711
996 0.00484255
999 0.0141046
1002 0.0510559
1005 0.0970867
1008 0.0575652
1011 0.0169029
1014 0.00503539
1017 0.00199228
1020 0.00130455
1023 0.000997672
1026 0.00110047
1029 0.00120693
1032 0.00137643
1035 0.00160251
1038 0.00232204
1041 0.00317837
1044 0.00475692
1047 0.00853178
1050 0.0182622
1053 0.0557345
1056 0.165413
1059 0.193546
1062 0.136839
1065 0.131049
1068 0.0341888
1071 0.0106514
1074 0.00544185
1077 0.00364882
1080 0.00263503
1083 0.00221436
1086 0.0020149
1089 0.00193852
1092 0.00236273
1095 0.00250349
1098 0.00392567
1101 0.00724406
1104 0.0185163
1107 0.0646161
1110 0.111603
1113 0.0852414
1116 0.0763887
1119 0.0218715
1122 0.00609487
1125 0.00280768
1128 0.00154449
1131 0.00126677
1134 0.00093682
1137 0.00107503
1140 0.000993912
1143 0.00119621
1146 0.00138098
1149 0.00238056
1152 0.00420579
1155 0.012078
1158 0.0606999
1161 0.148852
1164 0.0747489
1167 0.0117384
1170 0.00375056
1173 0.00185831
1176 0.00140587
1179 0.000726685
1182 0.000818074
1185 0.000907996
1188 0.000957633
1191 0.000865886
1194 0.00170606
1197 0.00236306
1200 0.00545196
1203 0.0163913
1206 0.0311147
1209 0.0411474
1212 0.0334017
1215 0.011211
1218 0.00369804
1221 0.00243769
1224 0.00201243
1227 0.00217169
1230 0.00274472
1233 0.0032566
1236 0.00418198
1239 0.00592455
1242 0.0102179
1245 0.0220411
1248 0.0721272
1251 0.192922
1254 0.311071
1257 0.269065
1260 0.101035
1263 0.0240696
1266 0.0100585
1269 0.00546751
1272 0.00386087
1275 0.00249032
1278 0.00164305
1281 0.00110056
1284 0.000949353
1287 0.000866087
1290 0.000631275
1293 0.000699859
1296 0.000291874
1299 0.000245029
1302 0.000360462
1305 0.000260923
1308 0.000157677
1311 0.000355803
1314 0.000762936
1317 0.000339547
1320 0.000785161
1323 0.000961529
1326 0.00153909
1329 0.00320727
1332 0.00748073
1335 0.020545
1338 0.03582
1341 0.0249304
1344 0.0174538
1347 0.024387
1350 0.0174492
1353 0.00484602
1356 0.00249219
1359 0.00149943
1362 0.00144436
1365 0.00157696
1368 0.00247759
1371 0.00361418
1374 0.00871499
1377 0.0245619
1380 0.0498787
1383 0.0545027
1386 0.0363582
1389 0.0221345
1392 0.00933806
1395 0.00339101
1398 0.00262855
1401 0.00244737
1404 0.00309656
1407 0.00451193
1410 0.00790694
1413 0.017466
1416 0.049933
1419 0.0997698
1422 0.118041
1425 0.106541
1428 0.0808301
1431 0.0444856
1434 0.0125077
1437 0.00567621
1440 0.00408338
1443 0.00314344
1446 0.00279277
1449 0.0030686
1452 0.00518118
1455 0.0146271
1458 0.0279073
1461 0.051861
1464 0.0633625
1467 0.0244499
1470 0.00708483
1473 0.00347517
1476 0.00288273
1479 0.00281896
1482 0.00342353
1485 0.00502404
1488 0.00911095
1491 0.0212375
1494 0.0528908
1497 0.0930594
1500 0.0965892
1503 0.0752545
1506 0.0785181
1509 0.028213
1512 0.008749
1515 0.00496947
1518 0.00326674
1521 0.00279167
1524 0.00314487
1527 0.00581245
1530 0.0141429
1533 0.0294889
1536 0.038072
1539 0.0297435
1542 0.0294773
1545 0.0146515
1548 0.00426544
1551 0.00214686
1554 0.00147282
1557 0.00173603
1560 0.00232255
1563 0.00406932
1566 0.0102491
1569 0.0334038
1572 0.0733717
1575 0.0983026
1578 0.0420128
1581 0.0096583
1584 0.00361134
1587 0.00213979
1590 0.00131734
1593 0.00098501
1596 0.000904952
1599 0.000546385
1602 0.000776865
1605 0.000439729
1608 0.00056862
1611 0.000392622
1614 0.000848564
1617 0.000556591
1620 0.000987076
1623 0.00132358
1626 0.00196688
1629 0.00294396
1632 0.00566911
1635 0.0124729
1638 0.0374463
1641 0.0726336
1644 0.0852468
1647 0.0752707
1650 0.048049
1653 0.0134073
1656 0.00583541
1659 0.00405441
1662 0.0029698
1665 0.0032341
1668 0.00530342
1671 0.0104892
1674 0.0135476
1677 0.018147
1680 0.0184249
1683 0.0146395
1686 0.00834714
1689 0.00561969
1692 0.00560023
1695 0.00695791
1698 0.0114907
1701 0.0237744
1704 0.0596823
1707 0.0966892
1710 0.128764
1713 0.128707
1716 0.100195
1719 0.0575194
1722 0.0296546
1725 0.0117813
1728 0.00764096
1731 0.00692525
1734 0.00895323
1737 0.016655
1740 0.0291901
1743 0.0310262
1746 0.0255195
1749 0.0163271
1752 0.0177593
1755 0.00937656
1758 0.00289568
1761 0.00163077
1764 0.00111768
1767 0.000670329
1770 0.000814011
1773 0.000369178
1776 0.00018115
1779 0.000156734
1782 0.000427188
1785 0.000390372
1788 0.0006852
1791 0.00136829
1794 0.00227896
1797 0.00468515
1800 0.0113731
1803 0.0238871
1806 0.0335971
1809 0.0364018
1812 0.0265368
1815 0.0155936
1818 0.00857128
1821 0.00523888
1824 0.00606575
1827 0.0106009
1830 0.0236335
1833 0.0476609
1836 0.0649489
1839 0.0534979
1842 0.0395034
1845 0.0485577
1848 0.0375416
1851 0.0118759
1854 0.00469956
1857 0.00278944
1860 0.00178709
1863 0.000966558
1866 0.000985894
1869 0.000626086
1872 0.00055613
1875 0.000468711
1878 0.000525405
1881 0.00100507
1884 0.000845218
1887 0.00243217
1890 0.00629019
1893 0.00989425
1896 0.0136528
1899 0.0236177
1902 0.0303178
1905 0.0178168
1908 0.00651848
1911 0.00313665
1914 0.00240874
1917 0.0030383
1920 0.00599124
1923 0.0112969
1926 0.0146592
1929 0.0183086
1932 0.017967
1935 0.0131713
1938 0.00744019
1941 0.00444761
1944 0.00482256
1947 0.00806991
1950 0.0169822
1953 0.0321763
1956 0.0559754
1959 0.0681029
1962 0.0541388
1965 0.0325476
1968 0.014213
1971 0.00697557
1974 0.00619403
1977 0.0101675
1980 0.0173151
1983 0.0237254
1986 0.0307938
1989 0.0262545
1992 0.0257175
1995 0.0194205
1998 0.00828521
2001 0.0062927
2004 0.00756229
2007 0.0152588
2010 0.0273574
2013 0.0374808
2016 0.056989
2019 0.0485926
2022 0.0219475
2025 0.0122244
2028 0.00857195
2031 0.00539584
2034 0.00571971
2037 0.00760905
2040 0.00771549
2043 0.00576798
2046 0.00483295
2049 0.00499335
2052 0.00692206
2055 0.00881098
2058 0.00993825
2061 0.0183184
2064 0.037944
2067 0.0553668
2070 0.0615264
2073 0.0541439
2076 0.0489793
2079 0.0363086
2082 0.022163
2085 0.00952699
2088 0.00466883
2091 0.0028328
2094 0.00254187
2097 0.00193764
2100 0.00240856
2103 0.00216205
2106 0.00258717
2109 0.00330282
2112 0.00539373
2115 0.0100995
2118 0.018271
2121 0.0245891
2124 0.0218271
2127 0.0154284
2130 0.0136697
2133 0.0186946
2136 0.0204284
2139 0.0109975
2142 0.0109418
2145 0.0153322
2148 0.0206009
2151 0.0231829
2154 0.0217025
2157 0.0162555
2160 0.0129627
2163 0.0106318
2166 0.00931255
2169 0.0157515
2172 0.0187687
2175 0.0278859
2178 0.040509
2181 0.0423109
2184 0.0320278
2187 0.0136966
2190 0.00621192
2193 0.00404345
2196 0.00542323
2199 0.00950761
2202 0.0111217
2205 0.0129898
2208 0.0119104
2211 0.0074625
2214 0.00443554
2217 0.00486408
2220 0.00839896
2223 0.0158651
2226 0.0204955
2229 0.0191309
2232 0.0142956
2235 0.0141107
2238 0.018464
2241 0.0129383
2244 0.00766621
2247 0.00885729
2250 0.0110495
2253 0.013933
2256 0.0156847
2259 0.0142432
2262 0.0106028
2265 0.00795044
2268 0.0077758
2271 0.0126653
2274 0.019407
2277 0.0260122
2280 0.0249605
2283 0.0187752
2286 0.0191092
2289 0.021629
2292 0.0108514
2295 0.00364564
2298 0.00145087
2301 0.00066205
2304 0.000462903
2307 0.000383567
2310 0.0004003
2313 0.000178605
2316 0.000493384
2319 0.000571844
2322 0.0018829
2325 0.00443001
2328 0.00836826
2331 0.0104168
2334 0.00900904
2337 0.003033
2340 0.00222719
2343 0.00370786
2346 0.0062477
2349 0.00820589
2352 0.00889104
2355 0.00799959
2358 0.00740521
2361 0.00943658
2364 0.00999084
2367 0.0124883
2370 0.0209456
2373 0.0315541
2376 0.0404639
2379 0.0499322
2382 0.0453562
2385 0.0265042
2388 0.01606
2391 0.0162678
2394 0.014235
2397 0.0125698
2400 0.0127154
2403 0.0129178
2406 0.0128074
2409 0.00961801
2412 0.00866405
2415 0.0109199
2418 0.00999038
2421 0.0118301
2424 0.0164265
2427 0.0159605
2430 0.0144693
2433 0.0154533
2436 0.010794
2439 0.00843247
2442 0.00867391
2445 0.00954639
2448 0.0103651
2451 0.00993032
2454 0.0100287
2457 0.0112852
2460 0.0138853
2463 0.0218734
2466 0.0304453
2469 0.0351543
2472 0.0371437
2475 0.0337209
2478 0.0282495
2481 0.0221903
2484 0.0193085
2487 0.0103876
2490 0.00480651
2493 0.00319826
2496 0.00224725
2499 0.00222449
2502 0.00248684
2505 0.00418794
2508 0.00896283
2511 0.0144138
2514 0.0200467
2517 0.0280991
2520 0.027612
2523 0.0261825
2526 0.0213365
2529 0.0106801
2532 0.00656651
2535 0.00653129
2538 0.00702136
2541 0.00718834
2544 0.00628686
2547 0.00424303
2550 0.00505756
2553 0.00612465
2556 0.0067697
2559 0.00822192
2562 0.00756164
2565 0.00554712
2568 0.00540266
2571 0.00746948
2574 0.0107245
2577 0.0116578
2580 0.0122956
2583 0.0133604
2586 0.0137633
2589 0.0112089
2592 0.00805201
2595 0.00746355
2598 0.00483021
2601 0.00167081
2604 0.000727265
2607 0.000395095
2610 0.000725959
2613 0.000656483
2616 0.00192087
2619 0.00324161
2622 0.00490201
2625 0.00653726
2628 0.00764789
2631 0.00955651
2634 0.00993218
2637 0.00991705
2640 0.01316
2643 0.0169828
2646 0.02111
2649 0.0268994
2652 0.02663
2655 0.0254187
2658 0.0219053
2661 0.0159942
2664 0.00814532
2667 0.00291248
2670 0.00172682
2673 0.000356657
2676 0.000373116
2679 0.000551505
2682 0.000603076
2685 0.00160936
2688 0.00160043
2691 0.00148943
2694 0.00120458
2697 0.00138215
2700 0.00262748
2703 0.00419834
2706 0.00677767
2709 0.00760668
2712 0.00793766
2715 0.00939828
2718 0.00930673
2721 0.00977693
2724 0.0117335
2727 0.0156216
2730 0.0201852
2733 0.0242112
2736 0.0246257
2739 0.0219283
2742 0.0174669
2745 0.0157933
2748 0.0131619
2751 0.0100604
2754 0.00752617
2757 0.00547387
2760 0.00427285
2763 0.00644312
2766 0.00804932
2769 0.0105493
2772 0.0136776
2775 0.0142885
2778 0.0158454
2781 0.0158678
2784 0.0123212
2787 0.0109946
2790 0.0123954
2793 0.0115836
2796 0.00852115
2799 0.00603389
2802 0.00540237
2805 0.0056716
2808 0.00715339
2811 0.00949682
2814 0.00933823
2817 0.0131319
2820 0.0156902
2823 0.0137019
2826 0.00852918
2829 0.00257559
2832 0.00170057
2835 0.000661463
2838 0.000808666
2841 0.000869242
2844 0.00152823
2847 0.00350506
2850 0.00569357
2853 0.00727952
2856 0.00855235
2859 0.00721966
2862 0.00780206
2865 0.00807172
2868 0.00814811
2871 0.00891334
2874 0.0074487
2877 0.00569112
2880 0.00528542
2883 0.00727121
2886 0.0101214
2889 0.01407
2892 0.0190745
2895 0.0222055
2898 0.0224174
2901 0.0203096
2904 0.0187759
2907 0.0200125
2910 0.0176146
2913 0.0130811
2916 0.00998998
2919 0.00933093
2922 0.00899267
2925 0.00785897
2928 0.00715515
2931 0.00524791
2934 0.00512548
2937 0.00763331
2940 0.00942241
2943 0.00925096
2946 0.00734651
2949 0.00577243
2952 0.00655811
2955 0.00629271
2958 0.00690448
2961 0.00686768
2964 0.00579126
2967 0.00644775
2970 0.00658316
2973 0.00692388
2976 0.0092543
2979 0.00807127
2982 0.00782719
2985 0.0079389
2988 0.00415334
2991 0.00155812
2994 0.000328735
2997 0.000135142
3000 0.000596766
3003 0.00172886
3006 0.00395094
3009 0.00347446
3012 0.0046241
3015 0.00395082
3018 0.00489764
3021 0.00458742
3024 0.00628852
3027 0.00830523
3030 0.00772507
3033 0.00698549
3036 0.00702937
3039 0.00662938
3042 0.00805424
3045 0.00880697
3048 0.00947341
3051 0.00693675
3054 0.00674988
3057 0.00549477
3060 0.00671611
3063 0.00816307
3066 0.00927066
3069 0.00960171
3072 0.00968897
3075 0.00843368
3078 0.00869513
3081 0.00919772
3084 0.00850038
3087 0.0110704
3090 0.0106484
3093 0.00768688
3096 0.00806917
3099 0.00872783
3102 0.0114581
3105 0.00790401
3108 0.00588043
3111 0.00632716
3114 0.00733251
3117 0.0101376
3120 0.0119341
3123 0.0139719
3126 0.016697
3129 0.0164927
3132 0.0165932
3135 0.0114777
3138 0.00924232
3141 0.00639122
3144 0.00672192
3147 0.00381635
3150 0.00152126
3153 0.00239896
3156 0.00359181
3159 0.00338538
3162 0.00470062
3165 0.00789294
3168 0.00946927
3171 0.00966888
3174 0.00715273
3177 0.0065201
3180 0.00656368
3183 0.00780216
3186 0.00902214
3189 0.0113646
3192 0.0129514
3195 0.0138781
3198 0.0151112
3201 0.0151402
3204 0.0149031
3207 0.0142154
3210 0.0112773
3213 0.0101792
3216 0.00817488
3219 0.0053234
3222 0.00347443
3225 0.00234923
3228 0.00256377
3231 0.00339428
3234 0.00349725
3237 0.00215271
3240 0.00250799
3243 0.00230664
3246 0.00110274
3249 0.00101653
3252 0.00283989
3255 0.00189775
3258 0.00411284
3261 0.00591924
3264 0.00807708
3267 0.00744635
3270 0.00965198
3273 0.0107807
3276 0.00789596
3279 0.00749218
3282 0.00501841
3285 0.00549626
3288 0.0058665
3291 0.00339839
3294 0.000878477
3297 0.00219624
3300 0.00353428
3303 0.00277339
3306 0.00442282
3309 0.00243377
3312 0.00409847
3315 0.00418135
3318 0.0040913
3321 0.00301745
3324 0.0030752
3327 0.00495519
3330 0.0055891
3333 0.00666273
3336 0.00774922
3339 0.0107475
3342 0.0106627
3345 0.0110478
3348 0.00897384
3351 0.00980612
3354 0.0119083
3357 0.00739095
3360 0.00687249
3363 0.00744637
3366 0.00723431
3369 0.00417201
3372 0.00473574
3375 0.00375664
3378 0.00473703
3381 0.00524632
3384 0.00731251
3387 0.00802315
3390 0.00618387
3393 0.00771707
3396 0.00434732
3399 0.00818843
3402 0.00742188
3405 0.00320318
3408 0.00416098
3411 0.0065702
3414 0.00533632
3417 0.00247124
3420 0.00177641
3423 0.00108878
3426 0.00198165
3429 0.00347029
3432 0.00308802
3435 0.00661591
3438 0.00518235
3441 0.00736361
3444 0.00706735
3447 0.00865667
3450 0.00378613
3453 0.00788815
3456 0.00863151
3459 0.0045665
3462 0.0048661
3465 0.00472263
3468 0.00880866
3471 0.00350851
3474 0.00596402
3477 0.0104839
3480 0.0100521
3483 0.00556594
3486 0.0226966
3487 0.0121625