File: constrainednmf/example_data/BaTiO3_xrd_ramp/BTO_430K_tth.xy
0.000000000000000000e+00 0.00025794
3 0.000365463
6 0.000593303
9 0.00262238
12 0.0119117
15 0.0136316
18 0.0129673
21 0.0122431
24 0.012624
27 0.012581
30 0.0102375
33 0.00414674
36 0.00294379
39 0.00297203
42 0.00312528
45 0.00305673
48 0.00301337
51 0.00304483
54 0.00312648
57 0.00308471
60 0.00311204
63 0.00314553
66 0.00315051
69 0.00319018
72 0.00324111
75 0.00329241
78 0.00340233
81 0.00353461
84 0.00360768
87 0.00363343
90 0.00355243
93 0.00349127
96 0.0034292
99 0.00338067
102 0.00336061
105 0.0033047
108 0.00326721
111 0.00332397
114 0.00326234
117 0.00320101
120 0.00320333
123 0.00317251
126 0.00300454
129 0.00318658
132 0.00310601
135 0.0030699
138 0.00303263
141 0.00298714
144 0.0029891
147 0.00297174
150 0.0028864
153 0.00288198
156 0.00283297
159 0.0028468
162 0.00283006
165 0.00278392
168 0.00267463
171 0.00266262
174 0.00260962
177 0.00258696
180 0.00264268
183 0.00252233
186 0.00245488
189 0.00240363
192 0.00245541
195 0.00236161
198 0.0023773
201 0.002307
204 0.00231334
207 0.00223286
210 0.00209857
213 0.00230702
216 0.00222987
219 0.00228261
222 0.00221184
225 0.00216652
228 0.002194
231 0.00223084
234 0.00224199
237 0.0022157
240 0.0022459
243 0.00229104
246 0.00226706
249 0.00230101
252 0.00231328
255 0.00234646
258 0.00235164
261 0.00231778
264 0.00239778
267 0.00236739
270 0.00248967
273 0.00245093
276 0.00254943
279 0.00271167
282 0.00268678
285 0.00273045
288 0.00275047
291 0.00281013
294 0.00266893
297 0.00248113
300 0.00233128
303 0.00223888
306 0.00210923
309 0.00211078
312 0.00217837
315 0.00214466
318 0.00210926
321 0.00230314
324 0.00305404
327 0.0058988
330 0.0278298
333 0.11863
336 0.0486015
339 0.00677117
342 0.00268411
345 0.00185228
348 0.00151932
351 0.00132335
354 0.00149972
357 0.00273143
360 0.00419536
363 0.00310767
366 0.0017662
369 0.000933443
372 0.000907251
375 0.000826814
378 0.000779395
381 0.000924612
384 0.000985374
387 0.00100166
390 0.000863817
393 0.00085625
396 0.000916046
399 0.000962081
402 0.000811875
405 0.000973273
408 0.00103062
411 0.0012551
414 0.00133096
417 0.00126946
420 0.00123185
423 0.00143028
426 0.00143858
429 0.00127859
432 0.00139322
435 0.00138127
438 0.00167596
441 0.00179671
444 0.0023339
447 0.00256372
450 0.00317704
453 0.00371066
456 0.00466895
459 0.00640324
462 0.00995792
465 0.0206355
468 0.0825671
471 0.676728
474 0.702806
477 0.0868482
480 0.0192726
483 0.00903875
486 0.00604188
489 0.00431997
492 0.00330443
495 0.00249587
498 0.00192741
501 0.00183471
504 0.00199557
507 0.00250214
510 0.00251622
513 0.00199492
516 0.00163105
519 0.00104636
522 0.000734508
525 0.000611922
528 0.000423324
531 0.000297217
534 0.000338568
537 0.000394079
540 0.000366174
543 0.000428154
546 0.00035148
549 0.000557803
552 0.000656518
555 0.000688344
558 0.000936131
561 0.00125726
564 0.00164304
567 0.00254892
570 0.0038523
573 0.0107906
576 0.0713758
579 0.367216
582 0.0876841
585 0.0115357
588 0.00430668
591 0.00259878
594 0.00173803
597 0.00143732
600 0.00112742
603 0.000977603
606 0.000705837
609 0.000795326
612 0.000592502
615 0.000759312
618 0.000680791
621 0.00130771
624 0.00180419
627 0.0017555
630 0.00155242
633 0.00160965
636 0.0016567
639 0.00144375
642 0.00151617
645 0.00199323
648 0.00266084
651 0.00354194
654 0.00545874
657 0.00869863
660 0.0168356
663 0.0453901
666 0.157122
669 0.405187
672 0.187217
675 0.0335453
678 0.0115466
681 0.00609693
684 0.00419761
687 0.00376512
690 0.00324363
693 0.00194306
696 0.00156309
699 0.00120383
702 0.00113948
705 0.00091255
708 0.000745632
711 0.000729222
714 0.000753031
717 0.00089437
720 0.000864713
723 0.000872964
726 0.000957327
729 0.000992058
732 0.0014919
735 0.00204911
738 0.00364351
741 0.00849272
744 0.0305277
747 0.116483
750 0.105645
753 0.018495
756 0.00493188
759 0.00216552
762 0.00157989
765 0.00111915
768 0.000892113
771 0.000970974
774 0.00102113
777 0.00102525
780 0.00106405
783 0.00134348
786 0.00143294
789 0.00180833
792 0.00201662
795 0.00251927
798 0.00311655
801 0.00403726
804 0.00536813
807 0.00826646
810 0.0147696
813 0.036273
816 0.147715
819 0.590056
822 0.3417
825 0.0533409
828 0.0163752
831 0.00842828
834 0.00545344
837 0.00379937
840 0.00307357
843 0.00244642
846 0.00183171
849 0.00164662
852 0.00115362
855 0.00112253
858 0.00119924
861 0.000988202
864 0.000821153
867 0.000691897
870 0.00061087
873 0.000452794
876 0.000626252
879 0.000743831
882 0.000724459
885 0.000894706
888 0.000471616
891 0.000527374
894 0.000357204
897 0.000485387
900 0.00038281
903 0.000543894
906 0.000312993
909 0.000345572
912 0.000294349
915 0.000383353
918 0.000656273
921 0.000944576
924 0.00145996
927 0.00175595
930 0.00254268
933 0.00398527
936 0.00706047
939 0.0160728
942 0.0561576
945 0.26258
948 0.323666
951 0.0717694
954 0.0172988
957 0.00713897
960 0.00400271
963 0.00261059
966 0.00213133
969 0.00161296
972 0.00155248
975 0.00148909
978 0.0014719
981 0.00120833
984 0.000966808
987 0.00126199
990 0.00144627
993 0.00269278
996 0.00504199
999 0.0136659
1002 0.0567379
1005 0.11074
1008 0.0298841
1011 0.00687463
1014 0.00279205
1017 0.00170904
1020 0.00105373
1023 0.00123336
1026 0.00123921
1029 0.00121816
1032 0.0013845
1035 0.00198417
1038 0.00234578
1041 0.0037999
1044 0.00554738
1047 0.00979739
1050 0.0198958
1053 0.0508464
1056 0.12668
1059 0.28051
1062 0.150813
1065 0.0353256
1068 0.0129201
1071 0.00661759
1074 0.00428545
1077 0.00310446
1080 0.00281076
1083 0.00214039
1086 0.00173292
1089 0.00197684
1092 0.00225697
1095 0.0028747
1098 0.00438554
1101 0.00782245
1104 0.0188109
1107 0.052249
1110 0.132224
1113 0.109992
1116 0.0239653
1119 0.0075332
1122 0.00365986
1125 0.00215156
1128 0.00129787
1131 0.000987967
1134 0.000785052
1137 0.000694732
1140 0.000773325
1143 0.00128581
1146 0.00147812
1149 0.00235112
1152 0.00503646
1155 0.0156943
1158 0.0861982
1161 0.149386
1164 0.0262162
1167 0.00596538
1170 0.00286488
1173 0.00145717
1176 0.00108246
1179 0.000770642
1182 0.000731632
1185 0.000855206
1188 0.000764987
1191 0.00141374
1194 0.00203858
1197 0.00247636
1200 0.00492185
1203 0.0138066
1206 0.0396416
1209 0.0487159
1212 0.0140868
1215 0.00472076
1218 0.00261525
1221 0.00219994
1224 0.00207694
1227 0.00231338
1230 0.00289083
1233 0.00364267
1236 0.00473659
1239 0.00718244
1242 0.0116547
1245 0.0236645
1248 0.0656627
1251 0.221655
1254 0.398217
1257 0.134191
1260 0.031729
1263 0.0131217
1266 0.00739465
1269 0.00493474
1272 0.00326672
1275 0.00241394
1278 0.00170038
1281 0.00146553
1284 0.000863003
1287 0.0011439
1290 0.000477339
1293 0.000316877
1296 0.000832663
1299 0.00049637
1302 0.000371781
1305 0.000598154
1308 0.000426696
1311 0.000416464
1314 0.000372179
1317 0.000644611
1320 0.000854462
1323 0.00122708
1326 0.00198448
1329 0.00327797
1332 0.00712841
1335 0.0141989
1338 0.024851
1341 0.0489881
1344 0.0281782
1347 0.0083125
1350 0.00354705
1353 0.00195111
1356 0.00114676
1359 0.00124114
1362 0.00114824
1365 0.00147104
1368 0.00208323
1371 0.00373676
1374 0.00832613
1377 0.018906
1380 0.0523866
1383 0.069277
1386 0.0210594
1389 0.00643719
1392 0.00363784
1395 0.00259154
1398 0.00242575
1401 0.00246192
1404 0.00365317
1407 0.00531822
1410 0.00943566
1413 0.0174251
1416 0.0390027
1419 0.0892055
1422 0.170394
1425 0.102557
1428 0.0284055
1431 0.0111387
1434 0.00631417
1437 0.0043927
1440 0.00343546
1443 0.0027271
1446 0.00285441
1449 0.00332662
1452 0.00478886
1455 0.0115044
1458 0.0380973
1461 0.072149
1464 0.0320453
1467 0.00899093
1470 0.00403904
1473 0.00318158
1476 0.00269545
1479 0.00333859
1482 0.00402519
1485 0.00556781
1488 0.0096542
1491 0.0192287
1494 0.0432665
1497 0.0899823
1500 0.150359
1503 0.0641951
1506 0.0195053
1509 0.00868641
1512 0.00513677
1515 0.00371009
1518 0.00297636
1521 0.002935
1524 0.00351068
1527 0.00555797
1530 0.0115484
1533 0.0239348
1536 0.0498946
1539 0.0343675
1542 0.00962034
1545 0.00403132
1548 0.00231965
1551 0.00195999
1554 0.00185563
1557 0.00207192
1560 0.0029022
1563 0.00494304
1566 0.0110614
1569 0.0377968
1572 0.107152
1575 0.0549175
1578 0.0118346
1581 0.00447723
1584 0.002679
1587 0.00197307
1590 0.00152482
1593 0.00110499
1596 0.00132778
1599 0.000975083
1602 0.000852397
1605 0.000955116
1608 0.000988913
1611 0.00103113
1614 0.000923403
1617 0.00105061
1620 0.00138092
1623 0.00177498
1626 0.00260593
1629 0.00415151
1632 0.00676209
1635 0.013536
1638 0.0336945
1641 0.0813323
1644 0.117489
1647 0.0356057
1650 0.0113874
1653 0.00588878
1656 0.00401705
1659 0.00338753
1662 0.00345034
1665 0.00331597
1668 0.00481385
1671 0.00754796
1674 0.0156827
1677 0.0252125
1680 0.0158702
1683 0.00659952
1686 0.00464444
1689 0.00467059
1692 0.00580983
1695 0.00774073
1698 0.01219
1701 0.0210047
1704 0.0425026
1707 0.0934661
1710 0.177374
1713 0.123883
1716 0.0409466
1719 0.0166284
1722 0.00955536
1725 0.00667904
1728 0.00584378
1731 0.00628696
1734 0.0076854
1737 0.0120579
1740 0.0212979
1743 0.0443237
1746 0.0289796
1749 0.00936541
1752 0.00410076
1755 0.002545
1758 0.00162891
1761 0.000963024
1764 0.00109218
1767 0.000761045
1770 0.000692607
1773 0.000759273
1776 0.000457316
1779 0.00049991
1782 0.000465361
1785 0.00078833
1788 0.00101227
1791 0.00132153
1794 0.00272067
1797 0.00460857
1800 0.00874452
1803 0.0202689
1806 0.0447927
1809 0.0344725
1812 0.0109419
1815 0.00513542
1818 0.00420391
1821 0.00461797
1824 0.00623014
1827 0.00997691
1830 0.0184613
1833 0.0312031
1836 0.0568163
1839 0.087281
1842 0.0424954
1845 0.014127
1848 0.00649512
1851 0.00368882
1854 0.00227559
1857 0.00165381
1860 0.000862453
1863 0.00062435
1866 0.000668354
1869 0.000427955
1872 0.000188503
1875 0.000471635
1878 0.000485198
1881 0.000660286
1884 0.00138584
1887 0.00265748
1890 0.00385467
1893 0.0093008
1896 0.0243948
1899 0.0290543
1902 0.0143371
1905 0.00498553
1908 0.00266102
1911 0.00171464
1914 0.00173139
1917 0.00220274
1920 0.00415379
1923 0.00868771
1926 0.0178145
1929 0.0229061
1932 0.0106135
1935 0.00430377
1938 0.00301189
1941 0.00343731
1944 0.00436971
1947 0.00716689
1950 0.0141332
1953 0.0315994
1956 0.0720522
1959 0.0648308
1962 0.0216232
1965 0.00881513
1968 0.00516672
1971 0.00482234
1974 0.00486074
1977 0.00735928
1980 0.0133301
1983 0.0235075
1986 0.0398519
1989 0.0259564
1992 0.00971907
1995 0.00561497
1998 0.00448555
2001 0.00499261
2004 0.00669338
2007 0.0113513
2010 0.0254886
2013 0.0575365
2016 0.0536377
2019 0.019668
2022 0.0080319
2025 0.00498128
2028 0.00385152
2031 0.00387587
2034 0.00407778
2037 0.00444543
2040 0.00583259
2043 0.00902219
2046 0.0074625
2049 0.00478449
2052 0.00455425
2055 0.0055425
2058 0.00832042
2061 0.0145665
2064 0.0253166
2067 0.046674
2070 0.0840456
2073 0.0568108
2076 0.0201969
2079 0.00931333
2082 0.00519857
2085 0.00355532
2088 0.00233947
2091 0.00242323
2094 0.00179932
2097 0.00171831
2100 0.00177603
2103 0.00223536
2106 0.00238703
2109 0.00290172
2112 0.00467666
2115 0.00748575
2118 0.0109681
2121 0.0162868
2124 0.0308214
2127 0.0289032
2130 0.0135925
2133 0.00686742
2136 0.00505105
2139 0.00453965
2142 0.00660122
2145 0.010185
2148 0.019567
2151 0.0292431
2154 0.0174978
2157 0.007518
2160 0.00475486
2163 0.0043956
2166 0.00543002
2169 0.00953513
2172 0.0197804
2175 0.0396111
2178 0.0427803
2181 0.0205642
2184 0.00797516
2187 0.00458464
2190 0.00321799
2193 0.00308158
2196 0.003938
2199 0.00751865
2202 0.014512
2205 0.0119802
2208 0.00430035
2211 0.00273277
2214 0.00303127
2217 0.00395798
2220 0.00625553
2223 0.0100731
2226 0.0156513
2229 0.0283284
2232 0.0204265
2235 0.0082483
2238 0.00410335
2241 0.00330508
2244 0.00379196
2247 0.00539192
2250 0.0100746
2253 0.0173366
2256 0.0151746
2259 0.00677291
2262 0.00388189
2265 0.00367077
2268 0.00525855
2271 0.00914784
2274 0.013301
2277 0.0229432
2280 0.0354281
2283 0.0200017
2286 0.00734685
2289 0.00321074
2292 0.00187793
2295 0.00181706
2298 0.00111065
2301 0.000690324
2304 0.000388772
2307 0.000500529
2310 0.000195084
2313 0.000321612
2316 0.000845107
2319 0.00114833
2322 0.00204579
2325 0.00569255
2328 0.0121437
2331 0.00595693
2334 0.00238579
2337 0.00161856
2340 0.00207809
2343 0.00264999
2346 0.00455028
2349 0.00601769
2352 0.0105743
2355 0.0113498
2358 0.00622839
2361 0.00507249
2364 0.00593395
2367 0.00871392
2370 0.0140018
2373 0.0280752
2376 0.0537025
2379 0.0453032
2382 0.0191169
2385 0.00905818
2388 0.00642784
2391 0.00622115
2394 0.00719843
2397 0.0108475
2400 0.0157176
2403 0.0148066
2406 0.00896095
2409 0.00523525
2412 0.00474803
2415 0.00572232
2418 0.00819383
2421 0.0129861
2424 0.0203718
2427 0.0163226
2430 0.0081266
2433 0.00518661
2436 0.00440081
2439 0.00531285
2442 0.0068791
2445 0.00919466
2448 0.0132676
2451 0.0105828
2454 0.00707573
2457 0.00699179
2460 0.00932058
2463 0.0132169
2466 0.0194732
2469 0.0350926
2472 0.0474325
2475 0.0286216
2478 0.0123451
2481 0.00639976
2484 0.00451793
2487 0.00353877
2490 0.00267359
2493 0.00257948
2496 0.00308853
2499 0.00262322
2502 0.0030726
2505 0.00405874
2508 0.00694945
2511 0.0126835
2514 0.0233756
2517 0.0355058
2520 0.0221103
2523 0.00924984
2526 0.00458703
2529 0.00397319
2532 0.00383929
2535 0.00480963
2538 0.00792552
2541 0.00800364
2544 0.00379635
2547 0.00262276
2550 0.00264236
2553 0.00353199
2556 0.00419243
2559 0.00625824
2562 0.00997041
2565 0.00841749
2568 0.0052973
2571 0.0036291
2574 0.00429863
2577 0.0048437
2580 0.00881904
2583 0.0165167
2586 0.0154991
2589 0.00723263
2592 0.0026509
2595 0.00161279
2598 0.00139863
2601 0.000779078
2604 0.00081077
2607 0.000366913
2610 0.000755626
2613 0.000941557
2616 0.00125954
2619 0.00252974
2622 0.0041306
2625 0.00789705
2628 0.0101581
2631 0.00687123
2634 0.00467232
2637 0.00494794
2640 0.00709082
2643 0.0118678
2646 0.0201928
2649 0.0320318
2652 0.0262777
2655 0.0120623
2658 0.00505646
2661 0.00281375
2664 0.00144945
2667 0.00128441
2670 0.000687114
2673 0.000377299
2676 0.00144233
2679 0.000588587
2682 0.00114562
2685 0.000730662
2688 0.00105057
2691 0.00206595
2694 0.00258739
2697 0.00250259
2700 0.00228524
2703 0.00301137
2706 0.00352464
2709 0.00555454
2712 0.00908524
2715 0.00936628
2718 0.00646285
2721 0.00499695
2724 0.006143
2727 0.00916634
2730 0.0136745
2733 0.0249078
2736 0.0264156
2739 0.0151079
2742 0.00714916
2745 0.00484356
2748 0.00393865
2751 0.00362243
2754 0.00537169
2757 0.00590725
2760 0.00383124
2763 0.00384015
2766 0.00406416
2769 0.00558727
2772 0.00958455
2775 0.0181194
2778 0.0178222
2781 0.00919981
2784 0.00537158
2787 0.00383769
2790 0.00458455
2793 0.00512879
2796 0.00779514
2799 0.0077511
2802 0.00497838
2805 0.00309451
2808 0.00345676
2811 0.00543345
2814 0.0114311
2817 0.0145648
2820 0.00762085
2823 0.00285062
2826 0.00133809
2829 0.00115953
2832 0.00106917
2835 0.00111959
2838 0.00144649
2841 0.000932594
2844 0.00148039
2847 0.00194209
2850 0.00321651
2853 0.00525851
2856 0.00897504
2859 0.0107806
2862 0.0063611
2865 0.00335337
2868 0.0023857
2871 0.00254668
2874 0.00384849
2877 0.00411736
2880 0.00541203
2883 0.00480261
2886 0.00492172
2889 0.00813511
2892 0.0118813
2895 0.0182134
2898 0.0252642
2901 0.0170756
2904 0.00860852
2907 0.00494419
2910 0.00459362
2913 0.00568751
2916 0.00906889
2919 0.00793207
2922 0.0048684
2925 0.00245016
2928 0.00233281
2931 0.00387574
2934 0.00744941
2937 0.00800631
2940 0.00524166
2943 0.00299822
2946 0.00236938
2949 0.00339741
2952 0.00423093
2955 0.00696137
2958 0.0062098
2961 0.00336657
2964 0.0031764
2967 0.00299271
2970 0.0048318
2973 0.00736967
2976 0.0100657
2979 0.00661097
2982 0.00284202
2985 0.00124058
2988 0.000920082
2991 0.000897193
2994 0.00157896
2997 0.000275857
3000 0.000701995
3003 0.00163772
3006 0.00212956
3009 0.0025648
3012 0.00460308
3015 0.00681562
3018 0.00505584
3021 0.00379285
3024 0.00429939
3027 0.00360353
3030 0.00530109
3033 0.00743325
3036 0.00659409
3039 0.00427208
3042 0.00387717
3045 0.0040083
3048 0.004694
3051 0.00707954
3054 0.00886743
3057 0.00549728
3060 0.00579869
3063 0.00568321
3066 0.00570353
3069 0.00777405
3072 0.00998344
3075 0.00810682
3078 0.00488389
3081 0.00608286
3084 0.0063544
3087 0.0085231
3090 0.0123917
3093 0.00888117
3096 0.0063296
3099 0.00451884
3102 0.00429538
3105 0.00501774
3108 0.00622197
3111 0.00530018
3114 0.0066294
3117 0.00626843
3120 0.00778041
3123 0.0131452
3126 0.0169869
3129 0.0147562
3132 0.00826917
3135 0.00624278
3138 0.00241565
3141 0.00365238
3144 0.0028526
3147 0.00257301
3150 0.00192595
3153 0.00221926
3156 0.00433833
3159 0.00687277
3162 0.00648282
3165 0.00689613
3168 0.00481014
3171 0.00465658
3174 0.00507176
3177 0.0040203
3180 0.00781295
3183 0.00868369
3186 0.00637096
3189 0.00731087
3192 0.00766573
3195 0.00995166
3198 0.0160488
3201 0.0149873
3204 0.00872065
3207 0.00635355
3210 0.00376276
3213 0.00446623
3216 0.00451646
3219 0.00465423
3222 0.00292479
3225 0.0027754
3228 0.00182581
3231 0.000909277
3234 0.00247044
3237 0.00254595
3240 0.00301985
3243 0.00192815
3246 0.000000000000000000e+00
3249 0.00262716
3252 0.00354517
3255 0.00325435
3258 0.00419951
3261 0.00482298
3264 0.00498409
3267 0.00985016
3270 0.0119397
3273 0.0106749
3276 0.0046988
3279 0.0029524
3282 0.00219735
3285 0.00219396
3288 0.000586055
3291 0.00237832
3294 0.000663938
3297 0.00293143
3300 0.00320402
3303 0.00540305
3306 0.00409909
3309 0.00454543
3312 0.00169257
3315 0.00316532
3318 0.0024358
3321 0.00273209
3324 0.00286829
3327 0.00362836
3330 0.00323242
3333 0.00345036
3336 0.00609271
3339 0.00927988
3342 0.00988704
3345 0.00727512
3348 0.00502902
3351 0.00352497
3354 0.00404654
3357 0.0030699
3360 0.00522008
3363 0.00558992
3366 0.00204238
3369 0.00347288
3372 0.00690411
3375 0.00473326
3378 0.00402254
3381 0.00434072
3384 0.00534971
3387 0.00348764
3390 0.00718821
3393 0.00631497
3396 0.00635094
3399 0.00274282
3402 0.00231051
3405 0.0073062
3408 0.00585865
3411 0.005902
3414 0.00780992
3417 0.00361928
3420 0.00634455
3423 0.00237611
3426 0.00430049
3429 0.00411262
3432 0.00529275
3435 0.00717765
3438 0.00470141
3441 0.0114465
3444 0.0101948
3447 0.0122559
3450 0.011345
3453 0.00653248
3456 0.00668429
3459 0.0105095
3462 0.00982454
3465 0.00921667
3468 0.00925382
3471 0.0120486
3474 0.0121007
3477 0.00716978
3480 0.00372281
3483 0.0127919
3486 0.00966965
3487 0.00025468