File: constrainednmf/example_data/BaTiO3_xrd_ramp/BTO_165K_tth.xy
0.000000000000000000e+00 0.000146653
3 0.000331484
6 0.000631605
9 0.00239506
12 0.0100997
15 0.0117867
18 0.0113253
21 0.0108028
24 0.0111528
27 0.011233
30 0.00930298
33 0.00424927
36 0.0032598
39 0.00330393
42 0.00345206
45 0.00347893
48 0.00346453
51 0.00348633
54 0.00354401
57 0.00354786
60 0.00360211
63 0.00362328
66 0.00360955
69 0.00372753
72 0.00370801
75 0.00375128
78 0.00382124
81 0.00399051
84 0.00398382
87 0.00399204
90 0.00392239
93 0.00383054
96 0.0038268
99 0.00379099
102 0.00372506
105 0.00363119
108 0.00362957
111 0.00363184
114 0.00359128
117 0.00349541
120 0.0034597
123 0.00338746
126 0.00325736
129 0.00334081
132 0.00329856
135 0.00320554
138 0.00313789
141 0.00311222
144 0.00302657
147 0.00299271
150 0.00298419
153 0.00291952
156 0.00286557
159 0.00282163
162 0.00272809
165 0.00265967
168 0.00262351
171 0.00257432
174 0.00247601
177 0.00240785
180 0.00246379
183 0.0023537
186 0.00230553
189 0.0022233
192 0.00218268
195 0.00211867
198 0.00205187
201 0.00201997
204 0.00196855
207 0.00188587
210 0.00187103
213 0.0018786
216 0.00185192
219 0.00177833
222 0.00174131
225 0.0017829
228 0.00177501
231 0.00172142
234 0.00173752
237 0.00168539
240 0.00168084
243 0.00165724
246 0.00169167
249 0.00167069
252 0.00176896
255 0.00165053
258 0.00170052
261 0.00166041
264 0.00167613
267 0.00168134
270 0.00165175
273 0.00172949
276 0.00179675
279 0.0018326
282 0.00194181
285 0.00199206
288 0.00198975
291 0.00209041
294 0.00211655
297 0.00197267
300 0.0018654
303 0.00170008
306 0.0017104
309 0.0016597
312 0.00171078
315 0.00175588
318 0.00182831
321 0.00207575
324 0.00257015
327 0.00472132
330 0.0206365
333 0.109537
336 0.0660573
339 0.0101585
342 0.00638892
345 0.00602821
348 0.00172528
351 0.00132235
354 0.0013098
357 0.00189488
360 0.00396867
363 0.00371093
366 0.00237596
369 0.00120413
372 0.00084046
375 0.000721517
378 0.000807611
381 0.000856496
384 0.00118287
387 0.00404091
390 0.00517119
393 0.00103384
396 0.000976475
399 0.000944958
402 0.000786833
405 0.000915181
408 0.000961194
411 0.00108032
414 0.00129862
417 0.0013841
420 0.00130198
423 0.00120107
426 0.00148818
429 0.00126191
432 0.0013177
435 0.00129913
438 0.00141656
441 0.00163344
444 0.00206979
447 0.00240767
450 0.00283629
453 0.00358447
456 0.00445173
459 0.00578565
462 0.00872385
465 0.0168345
468 0.0589119
471 0.445646
474 0.934647
477 0.159222
480 0.0267018
483 0.0108219
486 0.0065099
489 0.00477927
492 0.00348948
495 0.00273151
498 0.002027
501 0.00217178
504 0.00191471
507 0.00194498
510 0.00220594
513 0.00243836
516 0.00214814
519 0.00128772
522 0.000585844
525 0.000526608
528 0.000304981
531 0.000418863
534 0.000245003
537 0.000240305
540 0.000384233
543 0.000432773
546 0.000324383
549 0.000317815
552 0.00056814
555 0.000555598
558 0.000667889
561 0.0010672
564 0.00148441
567 0.00216824
570 0.00339485
573 0.00795531
576 0.0447894
579 0.287845
582 0.19244
585 0.0203828
588 0.00558107
591 0.0029788
594 0.00252667
597 0.00202882
600 0.00120975
603 0.00108713
606 0.0007876
609 0.00065643
612 0.000719643
615 0.000863347
618 0.000879627
621 0.00113213
624 0.00187955
627 0.00206103
630 0.00171482
633 0.0016046
636 0.00187683
639 0.00173526
642 0.00175988
645 0.0028958
648 0.00819061
651 0.00358514
654 0.00471866
657 0.00685374
660 0.0125549
663 0.0297158
666 0.114092
669 0.374153
672 0.260985
675 0.0756956
678 0.0206116
681 0.00833893
684 0.0050634
687 0.00407716
690 0.00312984
693 0.00312455
696 0.00307827
699 0.00794739
702 0.00217207
705 0.00108263
708 0.000859416
711 0.00176729
714 0.000897774
717 0.000589898
720 0.000729262
723 0.000906803
726 0.000821541
729 0.000829275
732 0.0010443
735 0.00128359
738 0.00257563
741 0.00578971
744 0.0196894
747 0.0873791
750 0.136474
753 0.0430621
756 0.00931957
759 0.00287483
762 0.0013414
765 0.000805258
768 0.000605
771 0.0005175
774 0.000651055
777 0.0011425
780 0.00131955
783 0.000711708
786 0.000898646
789 0.00104143
792 0.00126178
795 0.00172499
798 0.00215209
801 0.00287903
804 0.00408558
807 0.00636692
810 0.010813
813 0.0243368
816 0.0937307
819 0.409381
822 0.572771
825 0.14346
828 0.0295199
831 0.0109474
834 0.00607336
837 0.00400285
840 0.00283698
843 0.00195969
846 0.00146293
849 0.00115985
852 0.000752068
855 0.000481077
858 0.000568764
861 0.000719474
864 0.000512928
867 0.000603776
870 0.000366242
873 0.000554255
876 0.000341554
879 0.00247508
882 0.00206422
885 0.000893862
888 0.00066011
891 0.000517783
894 0.000480595
897 0.000102795
900 0.000156707
903 0.00033075
906 0.000357905
909 0.000387705
912 0.000529094
915 0.000296819
918 0.000606935
921 0.000862426
924 0.00114425
927 0.00162429
930 0.002439
933 0.00326463
936 0.0056952
939 0.0121547
942 0.0382627
945 0.150271
948 0.35161
951 0.197546
954 0.0375231
957 0.0116579
960 0.00571998
963 0.00354972
966 0.00248523
969 0.00192965
972 0.00181033
975 0.0020105
978 0.00399296
981 0.00274737
984 0.0023047
987 0.00184185
990 0.00177871
993 0.00221029
996 0.00425728
999 0.0103679
1002 0.0379846
1005 0.0974149
1008 0.076312
1011 0.0170178
1014 0.00581181
1017 0.00271985
1020 0.00168987
1023 0.00139886
1026 0.00126888
1029 0.00145552
1032 0.00154393
1035 0.00196206
1038 0.00231022
1041 0.0031002
1044 0.00454951
1047 0.00713323
1050 0.0134848
1053 0.0324687
1056 0.0996174
1059 0.249299
1062 0.221501
1065 0.0917159
1068 0.0344414
1071 0.0127901
1074 0.00655465
1077 0.00418121
1080 0.00306231
1083 0.00277315
1086 0.00260412
1089 0.00274373
1092 0.00265123
1095 0.0044948
1098 0.00393675
1101 0.00594301
1104 0.0124671
1107 0.0371127
1110 0.108094
1113 0.138118
1116 0.0645299
1119 0.021987
1122 0.00736454
1125 0.00343993
1128 0.00206946
1131 0.00128971
1134 0.00101515
1137 0.000987495
1140 0.000906835
1143 0.00126346
1146 0.00154346
1149 0.00213805
1152 0.00406101
1155 0.0105008
1158 0.0476225
1161 0.121802
1164 0.111726
1167 0.0178794
1170 0.00503162
1173 0.00237476
1176 0.00150703
1179 0.000963941
1182 0.000752201
1185 0.000625305
1188 0.000698594
1191 0.000928103
1194 0.00146426
1197 0.00184999
1200 0.00409649
1203 0.00945908
1206 0.0272691
1209 0.0504636
1212 0.0361394
1215 0.0116802
1218 0.00435417
1221 0.00243201
1224 0.00224773
1227 0.00209042
1230 0.00245435
1233 0.00320738
1236 0.00403877
1239 0.00564051
1242 0.0090543
1245 0.0172973
1248 0.0450854
1251 0.144681
1254 0.325109
1257 0.330786
1260 0.110397
1263 0.0299282
1266 0.0122298
1269 0.00662883
1272 0.00420491
1275 0.00259219
1278 0.00200875
1281 0.00135835
1284 0.00115332
1287 0.000774356
1290 0.000551127
1293 0.000984359
1296 0.00036423
1299 0.000264235
1302 0.00024225
1305 0.000512518
1308 0.000305151
1311 0.000415007
1314 0.000441247
1317 0.000612446
1320 0.00062808
1323 0.000912394
1326 0.00150938
1329 0.0022671
1332 0.00434374
1335 0.01025
1338 0.0252564
1341 0.0455682
1344 0.0366563
1347 0.0180906
1350 0.0100584
1353 0.00542483
1356 0.00295267
1359 0.00188425
1362 0.00138755
1365 0.00165677
1368 0.00180702
1371 0.00287462
1374 0.0056115
1377 0.0148667
1380 0.0409096
1383 0.0681655
1386 0.0535922
1389 0.0180708
1392 0.0077727
1395 0.00396895
1398 0.00239122
1401 0.00246331
1404 0.00259823
1407 0.00371288
1410 0.00598248
1413 0.011753
1416 0.0264368
1419 0.0687244
1422 0.143524
1425 0.159922
1428 0.0806442
1431 0.0329145
1434 0.0144781
1437 0.00694556
1440 0.00424185
1443 0.00305571
1446 0.0026657
1449 0.00285947
1452 0.00411551
1455 0.00903121
1458 0.0236741
1461 0.0507314
1464 0.0697445
1467 0.031842
1470 0.00859693
1473 0.00375538
1476 0.00263154
1479 0.00232655
1482 0.00327588
1485 0.00425014
1488 0.00669536
1491 0.0126198
1494 0.0290185
1497 0.0722793
1500 0.131602
1503 0.120566
1506 0.0606324
1509 0.0264024
1512 0.0107528
1515 0.00549744
1518 0.00360879
1521 0.00276272
1524 0.00312876
1527 0.00404844
1530 0.00815553
1533 0.0203441
1536 0.0411255
1539 0.0490648
1542 0.0295492
1545 0.0126721
1548 0.00500384
1551 0.00251198
1554 0.0017667
1557 0.00164325
1560 0.0021084
1563 0.00338127
1566 0.00794005
1569 0.0264883
1572 0.0574324
1575 0.101508
1578 0.0643933
1581 0.0146915
1584 0.00522191
1587 0.00268932
1590 0.00137789
1593 0.00115274
1596 0.000660492
1599 0.000813702
1602 0.000486007
1605 0.000352319
1608 0.000381369
1611 0.000406976
1614 0.000259248
1617 0.000802533
1620 0.00102853
1623 0.00114798
1626 0.0015434
1629 0.00249915
1632 0.00406203
1635 0.00867237
1638 0.0230354
1641 0.0564587
1644 0.0964675
1647 0.104246
1650 0.0460211
1653 0.0160778
1656 0.00701645
1659 0.00423189
1662 0.00293029
1665 0.00265386
1668 0.00333967
1671 0.00592388
1674 0.0115844
1677 0.0209235
1680 0.0238706
1683 0.0150185
1686 0.00682852
1689 0.00462486
1692 0.00435392
1695 0.00540959
1698 0.00818981
1701 0.0147173
1704 0.0319208
1707 0.0725622
1710 0.139957
1713 0.181354
1716 0.126493
1719 0.0518031
1722 0.0235436
1725 0.0129627
1728 0.00774687
1731 0.00603789
1734 0.00620326
1737 0.010359
1740 0.0209286
1743 0.0352357
1746 0.0432193
1749 0.0252601
1752 0.011333
1755 0.00643783
1758 0.00336176
1761 0.00166229
1764 0.000834928
1767 0.000554435
1770 0.000489218
1773 0.00051483
1776 0.00017962
1779 0.00011251
1782 0.000244042
1785 0.000636487
1788 0.000768934
1791 0.00106516
1794 0.00178492
1797 0.00320657
1800 0.00673132
1803 0.0176918
1806 0.0326353
1809 0.0454912
1812 0.0375809
1815 0.0147334
1818 0.00728878
1821 0.00506277
1824 0.00526358
1827 0.00730088
1830 0.0132751
1833 0.0277439
1836 0.0561785
1839 0.084314
1842 0.0786086
1845 0.0458694
1848 0.024656
1851 0.0128779
1854 0.00603666
1857 0.00338232
1860 0.00218554
1863 0.0017113
1866 0.000921663
1869 0.000550952
1872 0.000598531
1875 0.000583746
1878 0.000177443
1881 0.000936947
1884 0.00138182
1887 0.00212095
1890 0.00325013
1893 0.00641531
1896 0.0142916
1899 0.0250768
1902 0.0320613
1905 0.0227148
1908 0.00820214
1911 0.00392607
1914 0.00278601
1917 0.00252795
1920 0.00433973
1923 0.00791306
1926 0.015133
1929 0.0216502
1932 0.0239899
1935 0.0150214
1938 0.00676043
1941 0.00466525
1944 0.0047779
1947 0.00637222
1950 0.011369
1953 0.0259334
1956 0.048423
1959 0.0721907
1962 0.0807522
1965 0.0365604
1968 0.0152742
1971 0.00826609
1974 0.00647396
1977 0.00746663
1980 0.011489
1983 0.0211671
1986 0.0339528
1989 0.0406528
1992 0.0311924
1995 0.0164429
1998 0.00920369
2001 0.00617278
2004 0.00657895
2007 0.00983253
2010 0.0203368
2013 0.0364785
2016 0.0557721
2019 0.0676631
2022 0.0326683
2025 0.0122818
2028 0.0068537
2031 0.00527234
2034 0.00491918
2037 0.00525891
2040 0.00789206
2043 0.0102395
2046 0.0103576
2049 0.00764836
2052 0.00598197
2055 0.00598806
2058 0.00774675
2061 0.0116203
2064 0.0229852
2067 0.0448511
2070 0.070494
2073 0.088442
2076 0.0697588
2079 0.0347867
2082 0.0172819
2085 0.00972414
2088 0.0059001
2091 0.00396072
2094 0.00304702
2097 0.00210877
2100 0.00219722
2103 0.00224088
2106 0.00237259
2109 0.00268728
2112 0.00368781
2115 0.00600391
2118 0.0105787
2121 0.0188671
2124 0.0298979
2127 0.0341894
2130 0.0268883
2133 0.0170972
2136 0.0116309
2139 0.0091817
2142 0.00893719
2145 0.0117368
2148 0.0199283
2151 0.0269763
2154 0.0320195
2157 0.0246452
2160 0.0124424
2163 0.00802018
2166 0.00746838
2169 0.00966581
2172 0.0160737
2175 0.0292608
2178 0.0433624
2181 0.0519071
2184 0.0387488
2187 0.0167516
2190 0.00743711
2193 0.0050264
2196 0.00508627
2199 0.00778494
2202 0.010512
2205 0.0140235
2208 0.01598
2211 0.00893513
2214 0.00463749
2217 0.00399893
2220 0.00523464
2223 0.00943663
2226 0.0169304
2229 0.025209
2232 0.0289618
2235 0.0227489
2238 0.0138138
2241 0.0092773
2244 0.00706945
2247 0.00699821
2250 0.0105666
2253 0.0147801
2256 0.0193391
2259 0.019827
2262 0.0119237
2265 0.00662561
2268 0.0059386
2271 0.00753788
2274 0.0132414
2277 0.0232186
2280 0.034215
2283 0.036898
2286 0.0272437
2289 0.0155919
2292 0.00901477
2295 0.00456538
2298 0.00256204
2301 0.0013274
2304 0.000780314
2307 0.000498163
2310 0.00016603
2313 0.000405981
2316 0.000215198
2319 0.000415062
2322 0.00114879
2325 0.0038307
2328 0.00498672
2331 0.00946132
2334 0.0131977
2337 0.00456568
2340 0.00196074
2343 0.00286272
2346 0.0038296
2349 0.00658719
2352 0.0102215
2355 0.012387
2358 0.0118672
2361 0.00900002
2364 0.0075449
2367 0.00846517
2370 0.0139373
2373 0.0269299
2376 0.0398094
2379 0.054992
2382 0.0673267
2385 0.0390324
2388 0.0169576
2391 0.0108177
2394 0.0100288
2397 0.0122112
2400 0.0159887
2403 0.0183987
2406 0.0179592
2409 0.0122425
2412 0.00739797
2415 0.00620657
2418 0.00744539
2421 0.0108749
2424 0.0166153
2427 0.0212962
2430 0.0213159
2433 0.0152065
2436 0.00915994
2439 0.00682412
2442 0.00689438
2445 0.0101339
2448 0.0133795
2451 0.0146501
2454 0.0132511
2457 0.00993123
2460 0.00904375
2463 0.0132686
2466 0.0215541
2469 0.0351036
2472 0.0475609
2475 0.0559507
2478 0.0455523
2481 0.0243177
2484 0.0130987
2487 0.00819149
2490 0.00545826
2493 0.00341589
2496 0.0025203
2499 0.00182823
2502 0.00197739
2505 0.00291071
2508 0.00506915
2511 0.00994869
2514 0.017508
2517 0.0270422
2520 0.0365398
2523 0.0372864
2526 0.0225525
2529 0.0108704
2532 0.00641769
2535 0.00630183
2538 0.0066381
2541 0.00742213
2544 0.00875764
2547 0.00633568
2550 0.00312137
2553 0.00323494
2556 0.00443642
2559 0.00695892
2562 0.00991644
2565 0.010954
2568 0.00984042
2571 0.00684715
2574 0.00572756
2577 0.0072489
2580 0.0112719
2583 0.0145513
2586 0.017817
2589 0.0189524
2592 0.0124318
2595 0.00605322
2598 0.00251721
2601 0.00165543
2604 0.000667121
2607 0.0004687
2610 0.000360975
2613 0.000528722
2616 0.00109742
2619 0.00208223
2622 0.0039047
2625 0.00729949
2628 0.0089985
2631 0.0108159
2634 0.0116516
2637 0.00871735
2640 0.00860894
2643 0.0123547
2646 0.0200229
2649 0.0303456
2652 0.0383377
2655 0.0395268
2658 0.0278727
2661 0.0143867
2664 0.00759839
2667 0.00323327
2670 0.00181877
2673 0.000825142
2676 0.000696371
2679 0.000520475
2682 0.000717971
2685 0.000179004
2688 0.00132361
2691 0.00201174
2694 0.00297813
2697 0.00264183
2700 0.00258876
2703 0.00307981
2706 0.00412274
2709 0.00697552
2712 0.00969663
2715 0.0119813
2718 0.0121724
2721 0.0114991
2724 0.00884268
2727 0.0111176
2730 0.0170041
2733 0.0243098
2736 0.0308106
2739 0.0381617
2742 0.0308406
2745 0.0160783
2748 0.0108047
2751 0.00809481
2754 0.00747734
2757 0.00711113
2760 0.00714474
2763 0.00639822
2766 0.0054705
2769 0.0073931
2772 0.0115102
2775 0.0148508
2778 0.0198071
2781 0.0250399
2784 0.0195392
2787 0.0112267
2790 0.00865803
2793 0.00942708
2796 0.0109424
2799 0.0111436
2802 0.0103973
2805 0.00805645
2808 0.00622696
2811 0.00724316
2814 0.0104533
2817 0.0112636
2820 0.0153885
2823 0.0203451
2826 0.0126843
2829 0.00456215
2832 0.00236247
2835 0.00129523
2838 0.000482244
2841 0.00111079
2844 0.00147284
2847 0.00213392
2850 0.00384626
2853 0.00608085
2856 0.00905129
2859 0.013126
2862 0.0139924
2865 0.0133899
2868 0.00873178
2871 0.00681895
2874 0.00708948
2877 0.00825688
2880 0.00715662
2883 0.0080676
2886 0.00823529
2889 0.0102461
2892 0.0147873
2895 0.022208
2898 0.0291875
2901 0.0336361
2904 0.0320582
2907 0.0233407
2910 0.0154206
2913 0.0129352
2916 0.0121672
2919 0.0120182
2922 0.0113286
2925 0.00977852
2928 0.00679264
2931 0.00586197
2934 0.00675264
2937 0.00743076
2940 0.0098463
2943 0.0119447
2946 0.00971989
2949 0.00650907
2952 0.00701884
2955 0.00756064
2958 0.00866688
2961 0.0101727
2964 0.00902108
2967 0.0060029
2970 0.0068724
2973 0.00816242
2976 0.0100973
2979 0.0128463
2982 0.0131065
2985 0.00883246
2988 0.00388717
2991 0.00240869
2994 0.00156069
2997 0.000180423
3000 0.000570494
3003 0.000828052
3006 0.00208806
3009 0.00292446
3012 0.00583014
3015 0.00671919
3018 0.00727179
3021 0.00692127
3024 0.00660577
3027 0.00699117
3030 0.00761599
3033 0.0082416
3036 0.00913492
3039 0.00941486
3042 0.00702049
3045 0.00655693
3048 0.00699065
3051 0.00925335
3054 0.0103378
3057 0.0109085
3060 0.00893717
3063 0.00732775
3066 0.0087792
3069 0.0100088
3072 0.00988341
3075 0.0112116
3078 0.0107829
3081 0.0085865
3084 0.00763938
3087 0.00933489
3090 0.0122592
3093 0.0139527
3096 0.0131719
3099 0.0115883
3102 0.00795376
3105 0.00744752
3108 0.00593493
3111 0.00595198
3114 0.00656471
3117 0.00683359
3120 0.0102093
3123 0.014537
3126 0.0174296
3129 0.0205901
3132 0.0251639
3135 0.0205097
3138 0.0109906
3141 0.00708983
3144 0.00361255
3147 0.00249811
3150 0.0037278
3153 0.00309337
3156 0.0036868
3159 0.0037908
3162 0.00339321
3165 0.00566696
3168 0.00970512
3171 0.01049
3174 0.00800752
3177 0.0076714
3180 0.00851128
3183 0.00962532
3186 0.0103974
3189 0.0115958
3192 0.0103146
3195 0.0123004
3198 0.0158026
3201 0.0182747
3204 0.0227769
3207 0.0234143
3210 0.0153031
3213 0.00957817
3216 0.00691869
3219 0.00750244
3222 0.00665174
3225 0.00393302
3228 0.00263914
3231 0.00297696
3234 0.000860251
3237 0.00103242
3240 0.00129078
3243 0.00117625
3246 0.00182841
3249 0.000915731
3252 0.00243284
3255 0.00372158
3258 0.00472984
3261 0.0043705
3264 0.00647652
3267 0.00942796
3270 0.0098705
3273 0.0127625
3276 0.0155511
3279 0.0123659
3282 0.0084952
3285 0.00260651
3288 0.00244491
3291 0.00140379
3294 0.00123661
3297 0.000611782
3300 0.00143444
3303 0.00178949
3306 0.00428756
3309 0.00485392
3312 0.00511796
3315 0.00483223
3318 0.00370611
3321 0.00420498
3324 0.0027703
3327 0.00524364
3330 0.00490661
3333 0.00582712
3336 0.00777575
3339 0.010075
3342 0.0138643
3345 0.0134677
3348 0.0154908
3351 0.0118969
3354 0.0106296
3357 0.00881304
3360 0.00815917
3363 0.00582619
3366 0.00749195
3369 0.00655733
3372 0.00707216
3375 0.00605281
3378 0.0066734
3381 0.00769903
3384 0.00821602
3387 0.00822624
3390 0.00816968
3393 0.00797718
3396 0.00780407
3399 0.0085958
3402 0.00908759
3405 0.0068478
3408 0.00699975
3411 0.00572945
3414 0.00773389
3417 0.00448738
3420 0.000927764
3423 0.00295661
3426 0.00122973
3429 0.00201857
3432 0.00295665
3435 0.000746532
3438 0.0048432
3441 0.00603125
3444 0.00810238
3447 0.010919
3450 0.0129701
3453 0.00649543
3456 0.00778098
3459 0.00876977
3462 0.0067781
3465 0.0118561
3468 0.00729838
3471 0.00868143
3474 0.00382816
3477 0.00704057
3480 0.00506497
3483 0.0061015
3486 0.00507565
3487 0.00613078