File: constrainednmf/example_data/BaTiO3_xrd_ramp/BTO_255K_tth.xy
0.000000000000000000e+00 3.3223e-05
3 0.00016641
6 0.00039638
9 0.00214401
12 0.00969795
15 0.0116507
18 0.0110852
21 0.0105265
24 0.0109064
27 0.0108943
30 0.00895336
33 0.00371927
36 0.0026663
39 0.00271233
42 0.00284557
45 0.00287712
48 0.00283597
51 0.00287811
54 0.00294542
57 0.00295574
60 0.00296561
63 0.00305431
66 0.00305581
69 0.00310493
72 0.00316901
75 0.0032553
78 0.00327547
81 0.00341243
84 0.00347953
87 0.00353314
90 0.00347084
93 0.00343055
96 0.00337946
99 0.00334096
102 0.00327777
105 0.00323386
108 0.0032538
111 0.00320746
114 0.00323755
117 0.00320475
120 0.00318026
123 0.00311986
126 0.00303118
129 0.00308109
132 0.00304699
135 0.00302732
138 0.0029739
141 0.00291145
144 0.0028477
147 0.00290062
150 0.00283113
153 0.00280889
156 0.00281555
159 0.00272655
162 0.00270219
165 0.00269077
168 0.00262113
171 0.00253786
174 0.00249978
177 0.00250284
180 0.00252143
183 0.00241369
186 0.00239652
189 0.00236501
192 0.00231165
195 0.00226103
198 0.00227074
201 0.0022246
204 0.0021999
207 0.00209668
210 0.00214525
213 0.00215485
216 0.00207946
219 0.00205664
222 0.00210055
225 0.00200926
228 0.00207312
231 0.00205045
234 0.00204109
237 0.00200311
240 0.00191879
243 0.00200799
246 0.00204645
249 0.00200676
252 0.00203527
255 0.00203388
258 0.00203764
261 0.00209395
264 0.00205864
267 0.00210254
270 0.00207299
273 0.00215444
276 0.00217841
279 0.00225657
282 0.00235426
285 0.00239729
288 0.00245592
291 0.00246783
294 0.00249879
297 0.0022938
300 0.00221645
303 0.0020422
306 0.00200833
309 0.00200898
312 0.00205272
315 0.00202866
318 0.0020998
321 0.00231334
324 0.00289584
327 0.00552402
330 0.0276002
333 0.107826
336 0.0648551
339 0.00973499
342 0.00324808
345 0.00197394
348 0.00156804
351 0.00129869
354 0.00133612
357 0.00213492
360 0.00421329
363 0.00352019
366 0.0019916
369 0.00104421
372 0.000874812
375 0.000738723
378 0.0006986
381 0.000815672
384 0.000702392
387 0.00071495
390 0.000808616
393 0.000815732
396 0.000754752
399 0.000659414
402 0.00070057
405 0.000889562
408 0.000774635
411 0.00111882
414 0.00132003
417 0.00141398
420 0.00123837
423 0.00124138
426 0.00144219
429 0.0013094
432 0.00122799
435 0.00125718
438 0.00157583
441 0.00168183
444 0.00216159
447 0.0024678
450 0.00295329
453 0.00363024
456 0.00462295
459 0.00599772
462 0.00933337
465 0.0191643
468 0.0783761
471 0.570131
474 0.844869
477 0.12909
480 0.0234812
483 0.0100863
486 0.00628907
489 0.00431403
492 0.00320277
495 0.00251032
498 0.00189868
501 0.00166825
504 0.00161699
507 0.00192317
510 0.00242805
513 0.00218121
516 0.00185391
519 0.00102149
522 0.000448205
525 0.000458432
528 0.000318367
531 0.000140955
534 0.000161389
537 0.000197142
540 0.000302095
543 0.000183962
546 0.000297283
549 0.000222168
552 0.000407818
555 0.000545131
558 0.000861011
561 0.000954334
564 0.00144967
567 0.00204149
570 0.00364787
573 0.00912424
576 0.0558861
579 0.346529
582 0.137455
585 0.0151572
588 0.0049087
591 0.00276918
594 0.00195534
597 0.00133218
600 0.000882083
603 0.000661575
606 0.000513801
609 0.000493088
612 0.000542603
615 0.000513113
618 0.000565557
621 0.000940697
624 0.0019706
627 0.00181286
630 0.00135978
633 0.00141745
636 0.00134674
639 0.00156326
642 0.00153261
645 0.0016746
648 0.00220334
651 0.00322681
654 0.00486639
657 0.0075727
660 0.0155845
663 0.046401
666 0.194995
669 0.293229
672 0.23769
675 0.086706
678 0.0175594
681 0.00718053
684 0.00424498
687 0.00313704
690 0.0031024
693 0.00290132
696 0.00195991
699 0.00109869
702 0.000851003
705 0.000686035
708 0.000779443
711 0.00061896
714 0.000495541
717 0.00044698
720 0.000581229
723 0.000790739
726 0.000918689
729 0.000748559
732 0.00113685
735 0.00162671
738 0.00308347
741 0.00789855
744 0.0336903
747 0.10498
750 0.104171
753 0.0436471
756 0.00773693
759 0.00256105
762 0.00138424
765 0.000874082
768 0.000682154
771 0.000627031
774 0.000796364
777 0.000856516
780 0.000626689
783 0.00104065
786 0.00109572
789 0.00136205
792 0.00146886
795 0.00200163
798 0.002428
801 0.00343741
804 0.00486018
807 0.00729065
810 0.0126734
813 0.0320018
816 0.144718
819 0.486535
822 0.473346
825 0.117759
828 0.0235314
831 0.009782
834 0.0058801
837 0.00401162
840 0.00282071
843 0.0021242
846 0.00174159
849 0.00125626
852 0.000848444
855 0.00082835
858 0.000554862
861 0.000862863
864 0.000579606
867 0.000321736
870 0.000215007
873 0.000375205
876 0.000236132
879 0.000243058
882 0.000482835
885 0.000546307
888 0.000567358
891 0.000338271
894 4.45508e-05
897 0.000323522
900 0.000118571
903 0.000170833
906 0.000100021
909 0.000338241
912 0.000465168
915 0.000513913
918 0.000474342
921 0.000742251
924 0.000904603
927 0.00153005
930 0.00216738
933 0.00329765
936 0.00653553
939 0.015659
942 0.064342
945 0.187594
948 0.338298
951 0.154386
954 0.0290288
957 0.00947392
960 0.00474353
963 0.0030226
966 0.00195084
969 0.00144119
972 0.00133061
975 0.00166104
978 0.00166481
981 0.00141171
984 0.00115944
987 0.00111997
990 0.00151151
993 0.00233433
996 0.00488628
999 0.0145093
1002 0.0517608
1005 0.0978437
1008 0.0548323
1011 0.0157432
1014 0.00436555
1017 0.00172017
1020 0.00127284
1023 0.00102942
1026 0.000999413
1029 0.000964875
1032 0.00125123
1035 0.00154191
1038 0.00205581
1041 0.00318464
1044 0.00490101
1047 0.00882346
1050 0.0194755
1053 0.058994
1056 0.163982
1059 0.185632
1062 0.145088
1065 0.12626
1068 0.0303701
1071 0.00994514
1074 0.00516101
1077 0.00356086
1080 0.00238122
1083 0.00211555
1086 0.0019368
1089 0.00220223
1092 0.0021576
1095 0.00259851
1098 0.00382827
1101 0.00770784
1104 0.0195949
1107 0.0658764
1110 0.107989
1113 0.0870008
1116 0.0756739
1119 0.0194974
1122 0.00546365
1125 0.00275057
1128 0.00162038
1131 0.00115961
1134 0.000910885
1137 0.000720601
1140 0.000991712
1143 0.00111914
1146 0.00144849
1149 0.00226906
1152 0.00390601
1155 0.0120167
1158 0.0631119
1161 0.152053
1164 0.06798
1167 0.0107809
1170 0.00368732
1173 0.00169486
1176 0.00124783
1179 0.000786844
1182 0.000745262
1185 0.000683172
1188 0.000550416
1191 0.000964556
1194 0.00152462
1197 0.00258338
1200 0.00543765
1203 0.016803
1206 0.0315051
1209 0.0404588
1212 0.0323788
1215 0.0104223
1218 0.00392033
1221 0.0022892
1224 0.00172462
1227 0.001993
1230 0.00272073
1233 0.00315779
1236 0.00418964
1239 0.0061233
1242 0.0106398
1245 0.0226735
1248 0.0741738
1251 0.198452
1254 0.309024
1257 0.265664
1260 0.0909322
1263 0.0222895
1266 0.00950017
1269 0.00525413
1272 0.0034295
1275 0.002505
1278 0.00160536
1281 0.00133891
1284 0.000952482
1287 0.000804132
1290 0.000305532
1293 0.000359402
1296 0.000189712
1299 6.62747e-05
1302 0.000368419
1305 0.00034513
1308 0.000430043
1311 0.00043445
1314 0.000285539
1317 0.000239541
1320 0.000516725
1323 0.00105123
1326 0.00183274
1329 0.00336964
1332 0.00812923
1335 0.0208613
1338 0.0337883
1341 0.0241894
1344 0.0186739
1347 0.0269308
1350 0.0149337
1353 0.00408599
1356 0.00214901
1359 0.00143913
1362 0.00115966
1365 0.00132775
1368 0.00215352
1371 0.00394178
1374 0.00907397
1377 0.0247329
1380 0.0490614
1383 0.0544808
1386 0.0358229
1389 0.0221039
1392 0.00805408
1395 0.00325963
1398 0.0024879
1401 0.00242974
1404 0.00318585
1407 0.00469124
1410 0.00810577
1413 0.0184025
1416 0.0513582
1419 0.0986083
1422 0.11598
1425 0.104689
1428 0.0843646
1431 0.0388008
1434 0.0113291
1437 0.00581632
1440 0.00379067
1443 0.00293318
1446 0.00283598
1449 0.00305839
1452 0.00490744
1455 0.0144759
1458 0.0291869
1461 0.0539839
1464 0.0607861
1467 0.0224387
1470 0.00637071
1473 0.00337692
1476 0.00270527
1479 0.00267758
1482 0.00349073
1485 0.00514806
1488 0.00912724
1491 0.0222214
1494 0.0544688
1497 0.0918604
1500 0.0924403
1503 0.0790921
1506 0.0765043
1509 0.0239934
1512 0.00823793
1515 0.00444639
1518 0.0031191
1521 0.00282349
1524 0.00343004
1527 0.00557306
1530 0.0148688
1533 0.0295074
1536 0.0363223
1539 0.0293897
1542 0.0298872
1545 0.0128076
1548 0.00373171
1551 0.00192046
1554 0.00153319
1557 0.00156945
1560 0.00225085
1563 0.00390915
1566 0.00998481
1569 0.0343419
1572 0.077174
1575 0.0960773
1578 0.0372173
1581 0.0086178
1584 0.00352458
1587 0.00211353
1590 0.00160063
1593 0.000837745
1596 0.000759626
1599 0.000950357
1602 0.000595094
1605 0.000193745
1608 0.000342788
1611 0.000332332
1614 0.000446129
1617 0.000702478
1620 0.000627254
1623 0.00111033
1626 0.00198534
1629 0.00299531
1632 0.00566717
1635 0.0132878
1638 0.0381987
1641 0.0725648
1644 0.0832661
1647 0.0773753
1650 0.0431116
1653 0.0120063
1656 0.00521308
1659 0.00350563
1662 0.00313473
1665 0.00324305
1668 0.005451
1671 0.0101785
1674 0.0133572
1677 0.0178659
1680 0.0177904
1683 0.0133878
1686 0.00788427
1689 0.00539276
1692 0.00512769
1695 0.00687382
1698 0.0116518
1701 0.0246717
1704 0.059855
1707 0.0963839
1710 0.127251
1713 0.126752
1716 0.0971548
1719 0.0570645
1722 0.0258344
1725 0.0105853
1728 0.00697461
1731 0.00683424
1734 0.00899731
1737 0.0168798
1740 0.0274509
1743 0.0308569
1746 0.0245318
1749 0.0166079
1752 0.0180185
1755 0.00717161
1758 0.0023646
1761 0.00158356
1764 0.000722932
1767 0.00044592
1770 0.000677305
1773 0.00033171
1776 0.000116382
1779 5.41659e-05
1782 0.000481392
1785 0.000580479
1788 0.000781452
1791 0.00111215
1794 0.00209713
1797 0.0051396
1800 0.0109365
1803 0.0236929
1806 0.0330498
1809 0.0357786
1812 0.0257365
1815 0.0146784
1818 0.00716562
1821 0.00529036
1824 0.0064969
1827 0.0109115
1830 0.0243019
1833 0.0471271
1836 0.0614144
1839 0.0500724
1842 0.0402345
1845 0.0516606
1848 0.0323756
1851 0.00965873
1854 0.00418462
1857 0.00218995
1860 0.00154362
1863 0.00126395
1866 0.000445049
1869 0.000311552
1872 0.000143335
1875 0.000258125
1878 0.00068969
1881 0.000494491
1884 0.000915181
1887 0.0022253
1890 0.00539029
1893 0.00991586
1896 0.0143625
1899 0.0236048
1902 0.0288876
1905 0.0158164
1908 0.00530803
1911 0.00258795
1914 0.00223037
1917 0.00273987
1920 0.00577509
1923 0.010622
1926 0.0142444
1929 0.017504
1932 0.0166067
1935 0.0124889
1938 0.00623897
1941 0.00355105
1944 0.00412464
1947 0.00810599
1950 0.0169721
1953 0.0326363
1956 0.0560329
1959 0.0669091
1962 0.0522054
1965 0.0304574
1968 0.0123815
1971 0.00655697
1974 0.00613242
1977 0.00978915
1980 0.0168684
1983 0.0235057
1986 0.028703
1989 0.0249319
1992 0.0258766
1995 0.0168482
1998 0.00712776
2001 0.00551972
2004 0.00727765
2007 0.0147433
2010 0.0264802
2013 0.0384599
2016 0.0564736
2019 0.0450726
2022 0.0200384
2025 0.0120346
2028 0.00760383
2031 0.00480138
2034 0.0052711
2037 0.00678891
2040 0.00661609
2043 0.00576267
2046 0.00456646
2049 0.00513084
2052 0.00715197
2055 0.00840229
2058 0.00960478
2061 0.0179058
2064 0.0374661
2067 0.0540295
2070 0.059458
2073 0.0527182
2076 0.0492631
2079 0.0349384
2082 0.0198653
2085 0.00783999
2088 0.00416577
2091 0.00265024
2094 0.00191942
2097 0.00137153
2100 0.00146982
2103 0.00125008
2106 0.00204357
2109 0.0030773
2112 0.00531025
2115 0.00995618
2118 0.0172982
2121 0.0229737
2124 0.0202397
2127 0.014562
2130 0.0139918
2133 0.0207911
2136 0.0186023
2139 0.00952946
2142 0.0103706
2145 0.0147863
2148 0.0199249
2151 0.0225854
2154 0.0205682
2157 0.0156044
2160 0.0128494
2163 0.00882354
2166 0.00841687
2169 0.0151568
2172 0.0188383
2175 0.0280169
2178 0.0397939
2181 0.0407751
2184 0.0288668
2187 0.0117486
2190 0.00517093
2193 0.00395238
2196 0.00492029
2199 0.00912344
2202 0.0111114
2205 0.0123567
2208 0.0113196
2211 0.00652838
2214 0.00389494
2217 0.00428758
2220 0.00861514
2223 0.0154092
2226 0.0194686
2229 0.017831
2232 0.0132636
2235 0.0146735
2238 0.0189934
2241 0.0109493
2244 0.00651381
2247 0.00856091
2250 0.0106473
2253 0.0137809
2256 0.0153264
2259 0.013537
2262 0.00981265
2265 0.00716849
2268 0.0076847
2271 0.0127203
2274 0.0192499
2277 0.0244443
2280 0.0229975
2283 0.017984
2286 0.0202387
2289 0.0203947
2292 0.00842872
2295 0.00331012
2298 0.0011458
2301 0.000913347
2304 0.000368366
2307 0.000475934
2310 0.000000000000000000e+00
2313 3.42928e-05
2316 0.000283945
2319 0.000630597
2322 0.0012832
2325 0.00446647
2328 0.00856894
2331 0.010901
2334 0.00736396
2337 0.00253455
2340 0.00198685
2343 0.00352462
2346 0.00591522
2349 0.0080617
2352 0.00870126
2355 0.00769569
2358 0.00745877
2361 0.00923209
2364 0.00965609
2367 0.0122457
2370 0.0206947
2373 0.0312901
2376 0.0401645
2379 0.0494588
2382 0.0427906
2385 0.0240369
2388 0.0165336
2391 0.0158261
2394 0.0130254
2397 0.0117744
2400 0.0123702
2403 0.0127409
2406 0.0122114
2409 0.00886772
2412 0.00919188
2415 0.0105193
2418 0.00974006
2421 0.0123922
2424 0.0158179
2427 0.0152138
2430 0.0150526
2433 0.0148108
2436 0.00964845
2439 0.00810874
2442 0.0084792
2445 0.00921584
2448 0.0102832
2451 0.00964337
2454 0.0102708
2457 0.0115329
2460 0.0142965
2463 0.0215582
2466 0.0300572
2469 0.0337662
2472 0.0355462
2475 0.032364
2478 0.0275083
2481 0.0228335
2484 0.0177269
2487 0.00812553
2490 0.00446648
2493 0.00319127
2496 0.00254872
2499 0.00236159
2502 0.002531
2505 0.00458749
2508 0.00939198
2511 0.0144865
2514 0.0203624
2517 0.0273829
2520 0.026468
2523 0.0258999
2526 0.0196007
2529 0.0093989
2532 0.00604656
2535 0.0066397
2538 0.00702825
2541 0.00682666
2544 0.00585027
2547 0.00474331
2550 0.00521337
2553 0.00598052
2556 0.00671068
2559 0.00799087
2562 0.00734574
2565 0.0054792
2568 0.0055026
2571 0.00780401
2574 0.0108375
2577 0.0108251
2580 0.0116486
2583 0.0132449
2586 0.0132259
2589 0.0106297
2592 0.00839973
2595 0.00785398
2598 0.00438503
2601 0.00131696
2604 0.00038974
2607 0.000404868
2610 1.77052e-05
2613 0.00057285
2616 0.00129148
2619 0.00293678
2622 0.00486619
2625 0.00640804
2628 0.00815374
2631 0.00914274
2634 0.00962886
2637 0.0103765
2640 0.0132425
2643 0.0169684
2646 0.0212048
2649 0.0258364
2652 0.0264092
2655 0.0244438
2658 0.0215165
2661 0.0149641
2664 0.00635415
2667 0.00279521
2670 0.00120635
2673 0.00108012
2676 0.00047502
2679 0.000689299
2682 0.000969447
2685 0.00143836
2688 0.00126198
2691 0.00212957
2694 0.0013939
2697 0.00138047
2700 0.00245247
2703 0.0042797
2706 0.00664802
2709 0.00701215
2712 0.00773192
2715 0.00877977
2718 0.00926745
2721 0.0102486
2724 0.0116905
2727 0.0148033
2730 0.0194336
2733 0.0237448
2736 0.0234129
2739 0.0213115
2742 0.0167129
2745 0.0151314
2748 0.0124391
2751 0.00907176
2754 0.00617683
2757 0.00540609
2760 0.00486651
2763 0.00601682
2766 0.00835891
2769 0.0101894
2772 0.0135856
2775 0.0141808
2778 0.0159553
2781 0.0151192
2784 0.0121694
2787 0.0110136
2790 0.0128863
2793 0.0106195
2796 0.00761145
2799 0.00492722
2802 0.00440767
2805 0.00531165
2808 0.00763527
2811 0.00862532
2814 0.00934555
2817 0.0140321
2820 0.0152881
2823 0.0125082
2826 0.00675835
2829 0.00242934
2832 0.00111438
2835 0.00101606
2838 0.00118727
2841 0.00145131
2844 0.00194206
2847 0.00363514
2850 0.00512047
2853 0.00728337
2856 0.00837924
2859 0.00754077
2862 0.00770708
2865 0.00722266
2868 0.00866325
2871 0.00857229
2874 0.00713395
2877 0.00547137
2880 0.00565791
2883 0.00767972
2886 0.0100839
2889 0.014037
2892 0.0174346
2895 0.0202452
2898 0.0208654
2901 0.0181516
2904 0.0189568
2907 0.0198651
2910 0.0176983
2913 0.012356
2916 0.0101587
2919 0.00904044
2922 0.00821381
2925 0.00754604
2928 0.00756994
2931 0.00505815
2934 0.00477285
2937 0.00758153
2940 0.00925387
2943 0.00839129
2946 0.00702537
2949 0.00706632
2952 0.00576897
2955 0.00660183
2958 0.00668909
2961 0.005739
2964 0.00615158
2967 0.00678752
2970 0.0069831
2973 0.00819486
2976 0.00977599
2979 0.00890775
2982 0.00853775
2985 0.00642704
2988 0.00447457
2991 0.00125446
2994 0.00088526
2997 0.000639147
3000 0.00204367
3003 0.00220979
3006 0.00280737
3009 0.00337376
3012 0.00479138
3015 0.00423493
3018 0.00478506
3021 0.00474318
3024 0.0072862
3027 0.00857607
3030 0.00736827
3033 0.00699568
3036 0.00762002
3039 0.0065401
3042 0.00820631
3045 0.00897676
3048 0.00742758
3051 0.00699429
3054 0.00610198
3057 0.00526482
3060 0.00656085
3063 0.0101704
3066 0.0104557
3069 0.0093168
3072 0.00808039
3075 0.0084878
3078 0.00860366
3081 0.00926547
3084 0.00843333
3087 0.0103147
3090 0.0102406
3093 0.00856534
3096 0.00758253
3099 0.0100872
3102 0.0104
3105 0.00790207
3108 0.00517371
3111 0.00622278
3114 0.00685795
3117 0.0094841
3120 0.0104848
3123 0.0140014
3126 0.016188
3129 0.0164513
3132 0.0152313
3135 0.0111527
3138 0.00756629
3141 0.0081041
3144 0.00542777
3147 0.00302599
3150 0.00237089
3153 0.00237318
3156 0.00308062
3159 0.00315717
3162 0.00584135
3165 0.00867558
3168 0.00906804
3171 0.00863466
3174 0.00743891
3177 0.00532286
3180 0.00596724
3183 0.00917645
3186 0.00878478
3189 0.0113718
3192 0.0125334
3195 0.0137121
3198 0.0138457
3201 0.0143315
3204 0.0151987
3207 0.013368
3210 0.0126532
3213 0.00992118
3216 0.00739511
3219 0.00437779
3222 0.00227292
3225 0.00195367
3228 0.00237298
3231 0.00341309
3234 0.00261681
3237 0.00188794
3240 0.00115335
3243 0.00152503
3246 3.91314e-05
3249 0.00183044
3252 0.000809576
3255 0.00194351
3258 0.00414064
3261 0.00593916
3264 0.00636586
3267 0.00762753
3270 0.00777425
3273 0.00965202
3276 0.00681854
3279 0.00713023
3282 0.00454856
3285 0.00597626
3288 0.00253168
3291 0.00100083
3294 0.000964602
3297 0.000583266
3300 0.00186897
3303 0.00313542
3306 0.00190643
3309 0.00188786
3312 0.00188257
3315 0.00288539
3318 0.00231413
3321 0.00440768
3324 0.00241997
3327 0.00404521
3330 0.00518666
3333 0.00647471
3336 0.00687129
3339 0.0084925
3342 0.00921466
3345 0.0106043
3348 0.00966513
3351 0.00992836
3354 0.00795257
3357 0.00737495
3360 0.00534961
3363 0.00641695
3366 0.00638996
3369 0.0043788
3372 0.00517363
3375 0.0050851
3378 0.00418142
3381 0.00383719
3384 0.00685617
3387 0.00499607
3390 0.00594208
3393 0.00467021
3396 0.00547306
3399 0.00537351
3402 0.00801947
3405 0.00518091
3408 0.00490307
3411 0.00340533
3414 0.00792562
3417 1.94111e-05
3420 0.00599181
3423 0.00298293
3426 0.00769996
3429 0.00434666
3432 0.00800979
3435 0.00431126
3438 0.00427687
3441 0.00597885
3444 0.0083094
3447 0.00854399
3450 0.00957507
3453 0.0104745
3456 0.0107004
3459 0.00875801
3462 0.00952939
3465 0.0142254
3468 0.00757019
3471 0.0154338
3474 0.00936791
3477 0.0125487
3480 0.00847461
3483 0.0121282
3486 0.0258195
3487 0.000488481