File: constrainednmf/example_data/BaTiO3_xrd_ramp/BTO_355K_tth.xy
0.000000000000000000e+00 0.000808919
3 0.00083668
6 0.000992319
9 0.00303295
12 0.0127198
15 0.0145733
18 0.0137219
21 0.0129557
24 0.0133739
27 0.0132225
30 0.0107344
33 0.00434883
36 0.00300257
39 0.00304204
42 0.00308846
45 0.00317302
48 0.00316753
51 0.00308661
54 0.00307445
57 0.00308193
60 0.00316485
63 0.00318798
66 0.00324177
69 0.00332873
72 0.00332653
75 0.003369
78 0.00346895
81 0.00363984
84 0.00376383
87 0.00378173
90 0.00371112
93 0.00368381
96 0.00361573
99 0.00367411
102 0.00360723
105 0.0035922
108 0.00362682
111 0.00364389
114 0.00362132
117 0.00363908
120 0.00358672
123 0.00356244
126 0.0034634
129 0.00362233
132 0.00359357
135 0.00354498
138 0.00356883
141 0.00358673
144 0.00352689
147 0.00353908
150 0.0035009
153 0.00348807
156 0.00345875
159 0.00348679
162 0.00342653
165 0.00336672
168 0.00338263
171 0.0033319
174 0.00332667
177 0.00332134
180 0.00331957
183 0.00327268
186 0.00321743
189 0.00323201
192 0.00317353
195 0.00324651
198 0.00317494
201 0.00308901
204 0.00316266
207 0.00310699
210 0.00310586
213 0.00310121
216 0.00307881
219 0.00307325
222 0.00310028
225 0.00307775
228 0.00313112
231 0.00304114
234 0.00297548
237 0.00298973
240 0.00314926
243 0.00312515
246 0.00316292
249 0.00312848
252 0.00310208
255 0.00319811
258 0.0031765
261 0.00323057
264 0.00327518
267 0.00324195
270 0.0032848
273 0.0033266
276 0.00335254
279 0.00350654
282 0.00356521
285 0.003547
288 0.00361889
291 0.00362872
294 0.00353438
297 0.0033796
300 0.00319237
303 0.00307061
306 0.00289384
309 0.00290239
312 0.00298902
315 0.0029592
318 0.0029559
321 0.00314734
324 0.00397965
327 0.00752039
330 0.036955
333 0.106345
336 0.0672924
339 0.00951669
342 0.00367387
345 0.00265672
348 0.00234841
351 0.00206472
354 0.00218027
357 0.00325227
360 0.00503278
363 0.00398026
366 0.00251248
369 0.00169498
372 0.00147454
375 0.00138044
378 0.0013294
381 0.00148822
384 0.00144251
387 0.00138159
390 0.00145023
393 0.00133645
396 0.0014417
399 0.00142643
402 0.00144974
405 0.00143435
408 0.00159182
411 0.00169453
414 0.00196833
417 0.00180244
420 0.00159103
423 0.00182289
426 0.00196145
429 0.00184354
432 0.00180676
435 0.00187585
438 0.00216084
441 0.00232497
444 0.00266839
447 0.00301144
450 0.00360947
453 0.0042299
456 0.00525531
459 0.00717715
462 0.0106805
465 0.0217913
468 0.0879903
471 0.704358
474 0.783959
477 0.125987
480 0.023614
483 0.0104943
486 0.00683921
489 0.00501168
492 0.00387388
495 0.00288945
498 0.00237866
501 0.00225497
504 0.00237861
507 0.00246932
510 0.00313531
513 0.00251301
516 0.00197034
519 0.00141882
522 0.000957491
525 0.000852035
528 0.000774035
531 0.000667125
534 0.000586407
537 0.000542697
540 0.000712625
543 0.000562757
546 0.00076798
549 0.000734791
552 0.000871627
555 0.000866099
558 0.00122295
561 0.00158486
564 0.00209035
567 0.00284948
570 0.00425034
573 0.0108422
576 0.0669646
579 0.389118
582 0.114394
585 0.0141176
588 0.00512471
591 0.00315154
594 0.00236667
597 0.00183437
600 0.00137685
603 0.00124711
606 0.00111614
609 0.00114082
612 0.00119948
615 0.0010741
618 0.00114573
621 0.00190181
624 0.00241933
627 0.00230383
630 0.00202326
633 0.00192358
636 0.00212881
639 0.00200912
642 0.00205204
645 0.00222385
648 0.00293381
651 0.00411235
654 0.00583685
657 0.00936579
660 0.0203989
663 0.0777807
666 0.191975
669 0.247011
672 0.330788
675 0.0570855
678 0.0150865
681 0.00726874
684 0.00494161
687 0.00412396
690 0.00402873
693 0.0033226
696 0.00208352
699 0.00182008
702 0.00138422
705 0.00133078
708 0.00138927
711 0.00137808
714 0.00122687
717 0.00119865
720 0.0012805
723 0.00146926
726 0.00168648
729 0.00161136
732 0.0019755
735 0.00267241
738 0.00434092
741 0.0106412
744 0.0474052
747 0.0895147
750 0.126982
753 0.0351768
756 0.00703077
759 0.00314113
762 0.00218445
765 0.00175079
768 0.00168577
771 0.00135224
774 0.00161644
777 0.0012971
780 0.00163066
783 0.00152885
786 0.00204112
789 0.00225026
792 0.00248054
795 0.00304867
798 0.00366573
801 0.00493617
804 0.00620448
807 0.00875072
810 0.0155206
813 0.0412095
816 0.191598
819 0.472311
822 0.508712
825 0.0856275
828 0.0212734
831 0.0100465
834 0.00647891
837 0.00473459
840 0.00352659
843 0.00294456
846 0.00246738
849 0.00204516
852 0.00156019
855 0.00163527
858 0.00153912
861 0.00148321
864 0.00118087
867 0.000962097
870 0.000969886
873 0.00105527
876 0.000923104
879 0.00105714
882 0.000978788
885 0.00122964
888 0.000820768
891 0.000863879
894 0.000890137
897 0.000676295
900 0.000824206
903 0.000719797
906 0.00085159
909 0.000775411
912 0.000932117
915 0.00101514
918 0.00100162
921 0.00132282
924 0.00165728
927 0.00230387
930 0.00309598
933 0.00462387
936 0.00784705
939 0.0172706
942 0.0640482
945 0.288594
948 0.276907
951 0.146199
954 0.0279928
957 0.00931064
960 0.0049339
963 0.00312365
966 0.00235281
969 0.00207021
972 0.00190725
975 0.00213174
978 0.00197955
981 0.00206237
984 0.00149061
987 0.00166278
990 0.00203762
993 0.0031553
996 0.00728765
999 0.0185219
1002 0.0573949
1005 0.0990336
1008 0.053885
1011 0.0115965
1014 0.00381943
1017 0.00201699
1020 0.00152254
1023 0.00150783
1026 0.00145714
1029 0.00147095
1032 0.00182414
1035 0.0024064
1038 0.00268834
1041 0.00389117
1044 0.00619685
1047 0.0114035
1050 0.0308771
1053 0.104604
1056 0.115586
1059 0.140664
1062 0.262122
1065 0.0792104
1068 0.0195993
1071 0.00866307
1074 0.00520923
1077 0.00381239
1080 0.00301918
1083 0.00268039
1086 0.00230836
1089 0.00236657
1092 0.00259899
1095 0.00321505
1098 0.00517052
1101 0.0102469
1104 0.0336773
1107 0.0710343
1110 0.0700598
1113 0.140296
1116 0.0558474
1119 0.0117294
1122 0.00486042
1125 0.0025332
1128 0.00160031
1131 0.00157509
1134 0.00100901
1137 0.000815242
1140 0.00107665
1143 0.00143353
1146 0.00193506
1149 0.00287591
1152 0.00489697
1155 0.0145239
1158 0.077074
1161 0.175082
1164 0.0402894
1167 0.00818592
1170 0.00321395
1173 0.00229167
1176 0.00149486
1179 0.00106934
1182 0.000979627
1185 0.000972511
1188 0.0013212
1191 0.00154051
1194 0.00181069
1197 0.00289401
1200 0.00646469
1203 0.0212991
1206 0.0337041
1209 0.0411225
1212 0.03038
1215 0.00862735
1218 0.00400736
1221 0.00282693
1224 0.00259587
1227 0.0026922
1230 0.00347257
1233 0.0040834
1236 0.00534567
1239 0.00798948
1242 0.0132637
1245 0.0276029
1248 0.0954445
1251 0.229561
1254 0.312938
1257 0.250275
1260 0.0614471
1263 0.0181968
1266 0.00919437
1269 0.00589302
1272 0.00436377
1275 0.00278495
1278 0.00220942
1281 0.00169664
1284 0.00128281
1287 0.00101805
1290 0.000786186
1293 0.000916794
1296 0.000706342
1299 0.000752584
1302 0.000903408
1305 0.000733513
1308 0.000755976
1311 0.000534342
1314 0.000518171
1317 0.00105383
1320 0.00108682
1323 0.00157015
1326 0.00298448
1329 0.00697619
1332 0.0190016
1335 0.0183011
1338 0.0128983
1341 0.0203018
1344 0.0489529
1347 0.0243067
1350 0.00683068
1353 0.00340865
1356 0.00240567
1359 0.0019821
1362 0.00180628
1365 0.00223777
1368 0.00318073
1371 0.00690775
1374 0.0168578
1377 0.0230777
1380 0.039456
1383 0.0604329
1386 0.0457005
1389 0.0142989
1392 0.00556482
1395 0.00329011
1398 0.00342564
1401 0.00350437
1404 0.00453964
1407 0.0065701
1410 0.0121311
1413 0.033235
1416 0.0634572
1419 0.0822867
1422 0.0960007
1425 0.141025
1428 0.0798155
1431 0.0201561
1434 0.0089708
1437 0.00594768
1440 0.00444366
1443 0.00395217
1446 0.00387442
1449 0.00433052
1452 0.00619422
1455 0.0137311
1458 0.0467071
1461 0.0608509
1464 0.0433897
1467 0.0210159
1470 0.00652681
1473 0.00455849
1476 0.00374747
1479 0.00422793
1482 0.00520827
1485 0.00768988
1488 0.013646
1491 0.0380399
1494 0.06898
1497 0.0555325
1500 0.0947353
1503 0.120181
1506 0.0518561
1509 0.0151397
1512 0.00764006
1515 0.0051456
1518 0.00422817
1521 0.00400229
1524 0.00525687
1527 0.00957385
1530 0.0233506
1533 0.0240501
1536 0.0264854
1539 0.0466114
1542 0.0266312
1545 0.00752907
1548 0.0039668
1551 0.00302366
1554 0.00263362
1557 0.00299355
1560 0.00358955
1563 0.00615079
1566 0.0119967
1569 0.0402118
1572 0.105457
1575 0.078677
1578 0.0237992
1581 0.00770759
1584 0.00402014
1587 0.00292179
1590 0.0024239
1593 0.00210244
1596 0.00210048
1599 0.00187061
1602 0.00200285
1605 0.00179518
1608 0.0022463
1611 0.00180256
1614 0.00204596
1617 0.00219995
1620 0.00228188
1623 0.00273303
1626 0.00388097
1629 0.00527036
1632 0.00889963
1635 0.0214946
1638 0.0531234
1641 0.0558676
1644 0.0941097
1647 0.0885001
1650 0.022232
1653 0.00937264
1656 0.00559076
1659 0.00466207
1662 0.00416767
1665 0.00545704
1668 0.00742923
1671 0.0118685
1674 0.0165161
1677 0.0181037
1680 0.0171542
1683 0.0166966
1686 0.00745306
1689 0.00631577
1692 0.00725775
1695 0.0104458
1698 0.0195255
1701 0.0389472
1704 0.0600605
1707 0.0956639
1710 0.115482
1713 0.12589
1716 0.115081
1719 0.0371327
1722 0.0150325
1725 0.00954662
1728 0.00808337
1731 0.0106496
1734 0.0170014
1737 0.0146719
1740 0.0153564
1743 0.0289633
1746 0.0322963
1749 0.0291716
1752 0.00980917
1755 0.00463284
1758 0.00290789
1761 0.00245919
1764 0.00167977
1767 0.00146962
1770 0.0015434
1773 0.00124079
1776 0.000996762
1779 0.00115746
1782 0.00130187
1785 0.00175377
1788 0.00167145
1791 0.00250292
1794 0.00387113
1797 0.00808231
1800 0.0135814
1803 0.0230928
1806 0.0311885
1809 0.0384938
1812 0.026711
1815 0.0101691
1818 0.00594046
1821 0.00575886
1824 0.00880507
1827 0.0206573
1830 0.0410397
1833 0.0324755
1836 0.0271856
1839 0.0484851
1842 0.0845244
1845 0.0440422
1848 0.0132611
1851 0.00612928
1854 0.00361266
1857 0.0021396
1860 0.00188282
1863 0.00160036
1866 0.00117129
1869 0.00100193
1872 0.000992578
1875 0.000737873
1878 0.000785199
1881 0.000937214
1884 0.00147081
1887 0.00206448
1890 0.00460609
1893 0.01319
1896 0.0289874
1899 0.0193843
1902 0.0154877
1905 0.0157748
1908 0.00556787
1911 0.00281085
1914 0.00271655
1917 0.00356681
1920 0.00693439
1923 0.0114336
1926 0.0159284
1929 0.0145165
1932 0.0184509
1935 0.010749
1938 0.00443771
1941 0.00407472
1944 0.00520866
1947 0.0101251
1950 0.022371
1953 0.0332949
1956 0.0549384
1959 0.0710777
1962 0.0421016
1965 0.0206597
1968 0.00840693
1971 0.00577483
1974 0.00667845
1977 0.0126878
1980 0.0209649
1983 0.0184642
1986 0.0240873
1989 0.031466
1992 0.0253962
1995 0.0105414
1998 0.00643723
2001 0.00737408
2004 0.00936013
2007 0.0123915
2010 0.028596
2013 0.0535046
2016 0.0423759
2019 0.0396818
2022 0.0206571
2025 0.00809072
2028 0.00598659
2031 0.00639319
2034 0.0050815
2037 0.00400642
2040 0.00355081
2043 0.00448795
2046 0.00802735
2049 0.0101608
2052 0.00708533
2055 0.00883094
2058 0.0161459
2061 0.0238676
2064 0.0362505
2067 0.035123
2070 0.045019
2073 0.0710382
2076 0.0589479
2079 0.0216855
2082 0.00833711
2085 0.00463697
2088 0.00326665
2091 0.00236759
2094 0.00200931
2097 0.00189668
2100 0.00159512
2103 0.00206718
2106 0.00242956
2109 0.00462436
2112 0.011131
2115 0.0143906
2118 0.0099764
2121 0.00825996
2124 0.0112244
2127 0.0236795
2130 0.034069
2133 0.0180535
2136 0.00864697
2139 0.00916969
2142 0.0107367
2145 0.0118276
2148 0.0158771
2151 0.0204308
2154 0.0205124
2157 0.0191384
2160 0.00923502
2163 0.00551934
2166 0.00694225
2169 0.0138626
2172 0.0291493
2175 0.0360562
2178 0.0317358
2181 0.0263943
2184 0.0241223
2187 0.00888283
2190 0.00471386
2193 0.00350586
2196 0.0059887
2199 0.00917033
2202 0.0098655
2205 0.0151175
2208 0.00971927
2211 0.00428535
2214 0.00401389
2217 0.00915555
2220 0.0127313
2223 0.00946532
2226 0.00799674
2229 0.0116068
2232 0.0255303
2235 0.0266655
2238 0.00947186
2241 0.00568231
2244 0.00580916
2247 0.00811555
2250 0.0115093
2253 0.0128571
2256 0.0135572
2259 0.0132319
2262 0.00884249
2265 0.00652411
2268 0.0118089
2271 0.017208
2274 0.0127395
2277 0.0116887
2280 0.0196548
2283 0.030793
2286 0.0252872
2289 0.0100155
2292 0.00414746
2295 0.00219408
2298 0.00135504
2301 0.000864923
2304 0.000910616
2307 0.000840362
2310 0.000553392
2313 0.000593255
2316 0.00137655
2319 0.00127634
2322 0.00205189
2325 0.00537107
2328 0.0128745
2331 0.0099738
2334 0.00408863
2337 0.00267004
2340 0.00326657
2343 0.00576412
2346 0.00655802
2349 0.00556688
2352 0.00586451
2355 0.00963795
2358 0.0126444
2361 0.0111184
2364 0.0112806
2367 0.0113468
2370 0.0166706
2373 0.032073
2376 0.0412943
2379 0.0426288
2382 0.0371901
2385 0.0263216
2388 0.0146793
2391 0.00963903
2394 0.00961318
2397 0.0125147
2400 0.0117638
2403 0.00990856
2406 0.0139474
2409 0.013626
2412 0.00861894
2415 0.0102837
2418 0.0125436
2421 0.0109848
2424 0.0141312
2427 0.0157245
2430 0.0151717
2433 0.0141744
2436 0.00918496
2439 0.00832966
2442 0.00891973
2445 0.00818022
2448 0.0100774
2451 0.0113018
2454 0.0150394
2457 0.0170226
2460 0.0179248
2463 0.0183106
2466 0.0215117
2469 0.02603
2472 0.026984
2475 0.0394756
2478 0.0383061
2481 0.0177476
2484 0.00776146
2487 0.00531009
2490 0.00403713
2493 0.00424539
2496 0.00455915
2499 0.00426081
2502 0.00464828
2505 0.00663663
2508 0.0130625
2511 0.0194004
2514 0.0184562
2517 0.0252714
2520 0.0288541
2523 0.025428
2526 0.0137422
2529 0.00726016
2532 0.00529139
2535 0.00544294
2538 0.00753668
2541 0.00851437
2544 0.00760934
2547 0.0074297
2550 0.00740366
2553 0.00605953
2556 0.00447196
2559 0.00479735
2562 0.00566639
2565 0.0094538
2568 0.0115502
2571 0.0113326
2574 0.00896862
2577 0.00778312
2580 0.00928409
2583 0.0118581
2586 0.0126802
2589 0.0148734
2592 0.0109593
2595 0.00498785
2598 0.00255387
2601 0.00182476
2604 0.0021337
2607 0.00192991
2610 0.00178911
2613 0.00200432
2616 0.00273312
2619 0.00436906
2622 0.00710134
2625 0.00786191
2628 0.00788109
2631 0.0101097
2634 0.0102058
2637 0.0111899
2640 0.0145141
2643 0.0172768
2646 0.0199276
2649 0.0200176
2652 0.0219695
2655 0.0273472
2658 0.0195864
2661 0.00774368
2664 0.00365568
2667 0.00244129
2670 0.00152434
2673 0.00121814
2676 0.00149475
2679 0.00144354
2682 0.00125584
2685 0.0013388
2688 0.00164598
2691 0.00129935
2694 0.00257113
2697 0.00365471
2700 0.00540151
2703 0.00508257
2706 0.00493592
2709 0.006549
2712 0.00747454
2715 0.00784294
2718 0.0111197
2721 0.0135279
2724 0.0136409
2727 0.0111349
2730 0.0123176
2733 0.0181523
2736 0.0226243
2739 0.0212628
2742 0.0204163
2745 0.0128391
2748 0.00666448
2751 0.00427852
2754 0.00387643
2757 0.00585389
2760 0.00875162
2763 0.00849768
2766 0.00531484
2769 0.00653853
2772 0.00956292
2775 0.0107172
2778 0.0164356
2781 0.017871
2784 0.0147948
2787 0.00969953
2790 0.00557377
2793 0.00450338
2796 0.00427601
2799 0.00594599
2802 0.00740655
2805 0.00779578
2808 0.00553548
2811 0.00817281
2814 0.0116779
2817 0.0122479
2820 0.010696
2823 0.00831735
2826 0.00358514
2829 0.000839745
2832 0.000139261
2835 0.00126632
2838 0.00104572
2841 0.0024
2844 0.00340452
2847 0.00344064
2850 0.00397009
2853 0.00581894
2856 0.00476728
2859 0.00489091
2862 0.00868392
2865 0.0111232
2868 0.00694239
2871 0.00444868
2874 0.00520674
2877 0.00464891
2880 0.00658886
2883 0.00861684
2886 0.0118738
2889 0.0127855
2892 0.0112927
2895 0.0120527
2898 0.0150818
2901 0.0221854
2904 0.0232983
2907 0.0158325
2910 0.00958246
2913 0.00642255
2916 0.0079912
2919 0.00694722
2922 0.00456367
2925 0.00532253
2928 0.00526456
2931 0.00695337
2934 0.00793232
2937 0.005582
2940 0.005945
2943 0.00668069
2946 0.0069509
2949 0.00432475
2952 0.00452404
2955 0.00553466
2958 0.00527936
2961 0.00679867
2964 0.0068641
2967 0.00707576
2970 0.00609845
2973 0.00561205
2976 0.00779367
2979 0.00641357
2982 0.00602313
2985 0.00504068
2988 0.00301881
2991 0.00151196
2994 0.000431426
2997 0.00269375
3000 0.00268747
3003 0.00388309
3006 0.00344562
3009 0.00277131
3012 0.00326067
3015 0.00568328
3018 0.00729894
3021 0.00709313
3024 0.00679831
3027 0.00577174
3030 0.00526008
3033 0.00604954
3036 0.00778927
3039 0.00855283
3042 0.00682711
3045 0.00452299
3048 0.00393458
3051 0.00444723
3054 0.00556149
3057 0.00911227
3060 0.0111384
3063 0.0096906
3066 0.00738759
3069 0.00663189
3072 0.00773685
3075 0.0101335
3078 0.0119459
3081 0.00910204
3084 0.0060095
3087 0.00564093
3090 0.0080057
3093 0.0134771
3096 0.0125465
3099 0.00990227
3102 0.0062706
3105 0.00671651
3108 0.00648428
3111 0.00795172
3114 0.00727896
3117 0.00915093
3120 0.0115149
3123 0.0131157
3126 0.0147284
3129 0.0128535
3132 0.0122299
3135 0.0127839
3138 0.0107363
3141 0.0057439
3144 0.00399352
3147 0.00397605
3150 0.00265955
3153 0.00378549
3156 0.00479846
3159 0.00815118
3162 0.00991696
3165 0.00921148
3168 0.00962285
3171 0.00828425
3174 0.00736745
3177 0.00724169
3180 0.00776822
3183 0.00937429
3186 0.011484
3189 0.0122899
3192 0.0110387
3195 0.00986235
3198 0.011815
3201 0.0155312
3204 0.0166137
3207 0.0125268
3210 0.00984869
3213 0.00721707
3216 0.00455282
3219 0.00487685
3222 0.00368045
3225 0.00521369
3228 0.00408964
3231 0.00276523
3234 0.00299773
3237 0.00220475
3240 0.00257007
3243 0.00239252
3246 0.00347161
3249 0.00239071
3252 0.00465493
3255 0.00481522
3258 0.0056263
3261 0.00417949
3264 0.00546028
3267 0.00703974
3270 0.00652567
3273 0.0065597
3276 0.0089086
3279 0.009216
3282 0.00718436
3285 0.00172934
3288 0.00179518
3291 0.00167989
3294 0.00136527
3297 0.00284875
3300 0.00295795
3303 0.0039602
3306 0.00334588
3309 0.00418749
3312 0.00432874
3315 0.00368205
3318 0.00250888
3321 0.0035663
3324 0.00611157
3327 0.00543807
3330 0.00675968
3333 0.00651082
3336 0.00618104
3339 0.00471501
3342 0.00646799
3345 0.00762201
3348 0.0100742
3351 0.00819094
3354 0.00876265
3357 0.00711727
3360 0.00522229
3363 0.00289028
3366 0.0078633
3369 0.00425682
3372 0.00119669
3375 0.00222496
3378 0.00370387
3381 0.00482175
3384 0.00757143
3387 0.00354968
3390 0.00664377
3393 0.00644596
3396 0.00400691
3399 0.00733193
3402 0.00731576
3405 0.00333314
3408 0.00409671
3411 0.00264175
3414 0.00154258
3417 0.00421804
3420 0.00445184
3423 0.00405512
3426 0.00383698
3429 0.00432762
3432 0.00499872
3435 0.00563141
3438 0.00781345
3441 0.0126887
3444 0.00848822
3447 0.00825382
3450 0.00609051
3453 0.0108315
3456 0.0139187
3459 0.00952557
3462 0.011592
3465 0.0109657
3468 0.00907391
3471 0.00580373
3474 0.0113479
3477 0.01956
3480 0.0130913
3483 0.0248739
3486 0.000488403
3487 0.0167669