File: constrainednmf/example_data/BaTiO3_xrd_ramp/BTO_260K_tth.xy
0.000000000000000000e+00 0.00048989
3 0.000598944
6 0.000817709
9 0.00259426
12 0.0105029
15 0.0120058
18 0.0114719
21 0.0109175
24 0.0112536
27 0.0112571
30 0.00924733
33 0.00403925
36 0.002963
39 0.00300183
42 0.00315108
45 0.00318728
48 0.00312684
51 0.00316324
54 0.00321937
57 0.00322985
60 0.00327891
63 0.00335461
66 0.00334667
69 0.00339898
72 0.00343745
75 0.00347751
78 0.00359503
81 0.00373749
84 0.00375389
87 0.00379557
90 0.0037404
93 0.00372482
96 0.00373175
99 0.00364089
102 0.00363743
105 0.00355381
108 0.0036227
111 0.00357966
114 0.00358947
117 0.00350976
120 0.00352809
123 0.00351423
126 0.00336033
129 0.00343337
132 0.00341984
135 0.00342191
138 0.00335359
141 0.00336366
144 0.00339578
147 0.00326151
150 0.00318003
153 0.00318447
156 0.00317634
159 0.00316355
162 0.00310874
165 0.00306713
168 0.0030738
171 0.00299759
174 0.00302915
177 0.00293756
180 0.0028798
183 0.00290147
186 0.00287298
189 0.00276712
192 0.00281052
195 0.00268385
198 0.00269661
201 0.00265571
204 0.00263558
207 0.00260966
210 0.00255397
213 0.00256546
216 0.00253027
219 0.00249326
222 0.00249622
225 0.00241586
228 0.00247297
231 0.00250428
234 0.00250938
237 0.00245876
240 0.00244199
243 0.00239744
246 0.0024433
249 0.00255349
252 0.00244282
255 0.00248395
258 0.00249735
261 0.00245179
264 0.0025207
267 0.00260111
270 0.00258083
273 0.0025704
276 0.0026403
279 0.00268818
282 0.0028009
285 0.00288646
288 0.00295937
291 0.00293333
294 0.00289288
297 0.00274829
300 0.0026099
303 0.00253621
306 0.00243987
309 0.00237214
312 0.00247224
315 0.0023956
318 0.00251492
321 0.00265874
324 0.00336839
327 0.00592119
330 0.0281156
333 0.108156
336 0.0651038
339 0.00991902
342 0.00355053
345 0.00231762
348 0.00192822
351 0.00187652
354 0.00174396
357 0.00257669
360 0.00466181
363 0.00384995
366 0.0023383
369 0.00148842
372 0.00124619
375 0.00110403
378 0.00110342
381 0.00115039
384 0.00109713
387 0.0012564
390 0.00109
393 0.00106436
396 0.00107866
399 0.001207
402 0.00104927
405 0.00118076
408 0.0012453
411 0.00140029
414 0.00149589
417 0.00169063
420 0.0015743
423 0.0015533
426 0.00181509
429 0.0015192
432 0.00151184
435 0.00176931
438 0.00178465
441 0.00203473
444 0.00238416
447 0.00272025
450 0.00325952
453 0.0039442
456 0.00488322
459 0.00655339
462 0.00979524
465 0.0196196
468 0.0790726
471 0.57613
474 0.840161
477 0.128154
480 0.0236468
483 0.0104834
486 0.00672564
489 0.00485772
492 0.00359768
495 0.00278024
498 0.00224298
501 0.00197932
504 0.00197544
507 0.00228661
510 0.00276612
513 0.00246113
516 0.00207463
519 0.00139189
522 0.000874762
525 0.000744562
528 0.0006625
531 0.00055386
534 0.000549999
537 0.00064256
540 0.000627144
543 0.000553829
546 0.000494426
549 0.000573524
552 0.000848194
555 0.000848226
558 0.00107316
561 0.00138518
564 0.00181337
567 0.00246979
570 0.00397225
573 0.00959501
576 0.0568225
579 0.34826
582 0.135617
585 0.0154412
588 0.0050822
591 0.00308428
594 0.00252341
597 0.00168373
600 0.00136041
603 0.00116409
606 0.00087018
609 0.000891313
612 0.00083662
615 0.000936678
618 0.00101983
621 0.00126375
624 0.00213599
627 0.00216141
630 0.00173542
633 0.00164232
636 0.00187524
639 0.00173946
642 0.00188108
645 0.00208077
648 0.00252042
651 0.00362422
654 0.00492606
657 0.00826358
660 0.0160267
663 0.0477877
666 0.195469
669 0.291728
672 0.241947
675 0.0847179
678 0.0177719
681 0.00756564
684 0.00470277
687 0.00359563
690 0.00339875
693 0.00303942
696 0.00243284
699 0.00147561
702 0.00120025
705 0.00103077
708 0.00125984
711 0.000866548
714 0.000851415
717 0.00094611
720 0.000917935
723 0.00113178
726 0.00132064
729 0.00132927
732 0.00182416
735 0.00224601
738 0.0034697
741 0.00832624
744 0.0345093
747 0.105207
750 0.105304
753 0.0436042
756 0.00810839
759 0.00304932
762 0.00167383
765 0.00117239
768 0.00137589
771 0.00109917
774 0.00121563
777 0.00104851
780 0.00114733
783 0.00131948
786 0.0016561
789 0.00171147
792 0.00202449
795 0.00256564
798 0.00303531
801 0.00396908
804 0.00536253
807 0.00771086
810 0.0133071
813 0.0328122
816 0.14662
819 0.487685
822 0.473892
825 0.115734
828 0.0239002
831 0.00996149
834 0.00615209
837 0.00432955
840 0.00319834
843 0.00229667
846 0.00205597
849 0.00155561
852 0.0014141
855 0.00121501
858 0.0011326
861 0.00103285
864 0.000906856
867 0.000811728
870 0.000725121
873 0.000472248
876 0.000545277
879 0.000667612
882 0.00103037
885 0.00103976
888 0.000880779
891 0.000662174
894 0.000642056
897 0.000673499
900 0.000616215
903 0.000587031
906 0.000497398
909 0.000754155
912 0.000707403
915 0.000596659
918 0.000828416
921 0.000964407
924 0.00142757
927 0.00198947
930 0.00253914
933 0.00375119
936 0.00667881
939 0.015894
942 0.0647645
945 0.190867
948 0.338402
951 0.152632
954 0.0293387
957 0.00982145
960 0.00502569
963 0.00350645
966 0.00224998
969 0.00182652
972 0.00189827
975 0.00192373
978 0.0018609
981 0.00175379
984 0.00173244
987 0.00154387
990 0.0017391
993 0.00273746
996 0.0052387
999 0.0148727
1002 0.0522984
1005 0.0983984
1008 0.0547575
1011 0.0160462
1014 0.00482887
1017 0.00237172
1020 0.00156359
1023 0.00142228
1026 0.00118769
1029 0.00147851
1032 0.00155219
1035 0.00192745
1038 0.00266298
1041 0.00342001
1044 0.00522211
1047 0.00933387
1050 0.0201625
1053 0.0605131
1056 0.163277
1059 0.184486
1062 0.148757
1065 0.12446
1068 0.0295408
1071 0.0101617
1074 0.00548335
1077 0.00389786
1080 0.00293427
1083 0.00255101
1086 0.00256424
1089 0.00229944
1092 0.00266389
1095 0.00305547
1098 0.00433664
1101 0.00785834
1104 0.0204668
1107 0.0662999
1110 0.106981
1113 0.0885812
1116 0.075404
1119 0.0190135
1122 0.00600549
1125 0.00289025
1128 0.00214707
1131 0.0014165
1134 0.00112027
1137 0.00114865
1140 0.0012109
1143 0.00150605
1146 0.00159408
1149 0.00262761
1152 0.00433327
1155 0.0124672
1158 0.0638626
1161 0.153188
1164 0.0665004
1167 0.0109507
1170 0.00388017
1173 0.0022549
1176 0.00185987
1179 0.00112093
1182 0.000950167
1185 0.000900623
1188 0.00091855
1191 0.00113063
1194 0.00171164
1197 0.00268245
1200 0.00582461
1203 0.017151
1206 0.0319921
1209 0.0407594
1212 0.0328434
1215 0.0103244
1218 0.00384436
1221 0.00273008
1224 0.00236241
1227 0.00253686
1230 0.00294813
1233 0.00339094
1236 0.00450486
1239 0.00672721
1242 0.0108927
1245 0.0230914
1248 0.0751867
1251 0.200269
1254 0.309523
1257 0.265337
1260 0.0890124
1263 0.0222509
1266 0.00966912
1269 0.00586478
1272 0.00401403
1275 0.00288748
1278 0.00209214
1281 0.00156335
1284 0.00112775
1287 0.000912283
1290 0.000803324
1293 0.000494599
1296 0.000546583
1299 0.000715755
1302 0.000625979
1305 0.000583852
1308 0.000540463
1311 0.000744262
1314 0.000798364
1317 0.000456372
1320 0.00108588
1323 0.00133293
1326 0.00213163
1329 0.00404347
1332 0.00877118
1335 0.0210607
1338 0.0333186
1341 0.0244061
1344 0.0189598
1347 0.0280924
1350 0.0147769
1353 0.00449889
1356 0.00225958
1359 0.00180465
1362 0.00179371
1365 0.00204405
1368 0.00244941
1371 0.00434965
1374 0.00963103
1377 0.0248606
1380 0.0492651
1383 0.0546333
1386 0.036108
1389 0.0223332
1392 0.00809004
1395 0.00356076
1398 0.00304828
1401 0.0029665
1404 0.00364875
1407 0.00544367
1410 0.00920762
1413 0.0192088
1416 0.0522605
1419 0.0981827
1422 0.116654
1425 0.10504
1428 0.0851684
1431 0.0375819
1434 0.0116278
1437 0.0058928
1440 0.004166
1443 0.00331006
1446 0.00299905
1449 0.00342627
1452 0.00548751
1455 0.0150488
1458 0.0302134
1461 0.055154
1464 0.0601607
1467 0.0223427
1470 0.00669129
1473 0.00368855
1476 0.00316142
1479 0.00339112
1482 0.00377987
1485 0.00581727
1488 0.0102682
1491 0.0233028
1494 0.0553064
1497 0.0916728
1500 0.091859
1503 0.0811448
1506 0.0758005
1509 0.0234698
1512 0.00867841
1515 0.004882
1518 0.00350951
1521 0.00306769
1524 0.00384819
1527 0.00644706
1530 0.014591
1533 0.0301947
1536 0.0362266
1539 0.0299617
1542 0.0306265
1545 0.0126482
1548 0.00396821
1551 0.00252273
1554 0.00211681
1557 0.00222509
1560 0.00265079
1563 0.00463296
1566 0.0103123
1569 0.0347111
1572 0.0781086
1575 0.0956277
1578 0.0365212
1581 0.00912787
1584 0.00413748
1587 0.00254502
1590 0.00181903
1593 0.00135633
1596 0.00125964
1599 0.00108598
1602 0.00106172
1605 0.00113658
1608 0.000815102
1611 0.000917417
1614 0.00105958
1617 0.00148126
1620 0.00149082
1623 0.00208973
1626 0.00269456
1629 0.00373485
1632 0.006386
1635 0.0141658
1638 0.0391867
1641 0.0731665
1644 0.0835825
1647 0.0787994
1650 0.0427427
1653 0.0119912
1656 0.0060159
1659 0.00383927
1662 0.00378244
1665 0.00384541
1668 0.00570391
1671 0.0105875
1674 0.0141748
1677 0.0184168
1680 0.0185221
1683 0.0141787
1686 0.00877546
1689 0.00574064
1692 0.00576415
1695 0.00773208
1698 0.0126736
1701 0.025576
1704 0.0608743
1707 0.0969801
1710 0.127703
1713 0.127438
1716 0.0969283
1719 0.0575639
1722 0.0248474
1725 0.0112104
1728 0.00725056
1731 0.00715297
1734 0.00978531
1737 0.0173974
1740 0.0277415
1743 0.030979
1746 0.0247281
1749 0.0174687
1752 0.0184828
1755 0.00746368
1758 0.00263861
1761 0.00187307
1764 0.00119611
1767 0.0010387
1770 0.00103141
1773 0.000902564
1776 0.00104054
1779 0.000632373
1782 0.000744826
1785 0.000716293
1788 0.00119007
1791 0.00141431
1794 0.00257895
1797 0.00547152
1800 0.0118488
1803 0.024044
1806 0.0334371
1809 0.0363153
1812 0.0259893
1815 0.0151577
1818 0.00733317
1821 0.00530681
1824 0.00685687
1827 0.0117386
1830 0.0250814
1833 0.0473207
1836 0.0609675
1839 0.050352
1842 0.0413225
1845 0.0533567
1848 0.0313056
1851 0.0097544
1854 0.00429979
1857 0.00268808
1860 0.00218569
1863 0.00133994
1866 0.000847461
1869 0.00054786
1872 0.000813741
1875 0.00088684
1878 0.000596359
1881 0.000651047
1884 0.000967692
1887 0.0022259
1890 0.00642522
1893 0.0103344
1896 0.0145915
1899 0.0242358
1902 0.0287616
1905 0.0157417
1908 0.00571591
1911 0.00288437
1914 0.00237149
1917 0.00331109
1920 0.00627478
1923 0.0110361
1926 0.0145088
1929 0.0180125
1932 0.0170034
1935 0.0125636
1938 0.00645774
1941 0.00410754
1944 0.0050343
1947 0.00862647
1950 0.0174085
1953 0.0329805
1956 0.0562495
1959 0.0669083
1962 0.0518189
1965 0.0298117
1968 0.0122425
1971 0.00654941
1974 0.00642845
1977 0.0100974
1980 0.0174462
1983 0.0238462
1986 0.029161
1989 0.0254942
1992 0.0262422
1995 0.0168483
1998 0.00714592
2001 0.00544489
2004 0.00799456
2007 0.0147737
2010 0.0270651
2013 0.0392608
2016 0.0568524
2019 0.044383
2022 0.0203732
2025 0.0125857
2028 0.00758503
2031 0.00474346
2034 0.00544411
2037 0.00692855
2040 0.00729535
2043 0.00576798
2046 0.0050299
2049 0.00553187
2052 0.00808163
2055 0.00844278
2058 0.00972577
2061 0.0186087
2064 0.0375034
2067 0.0539626
2070 0.0590393
2073 0.053304
2076 0.0493237
2079 0.0348845
2082 0.0197097
2085 0.00804907
2088 0.00440295
2091 0.00299432
2094 0.0021939
2097 0.00212149
2100 0.00192417
2103 0.00171736
2106 0.00248389
2109 0.00354831
2112 0.00543906
2115 0.0101376
2118 0.0173383
2121 0.022794
2124 0.0203412
2127 0.0151082
2130 0.0147799
2133 0.0217675
2136 0.0180263
2139 0.00971056
2142 0.0105067
2145 0.0152902
2148 0.0198445
2151 0.0229512
2154 0.0206668
2157 0.0155989
2160 0.0133022
2163 0.00901018
2166 0.00856665
2169 0.0154027
2172 0.0198627
2175 0.0290506
2178 0.0398642
2181 0.0405773
2184 0.0285129
2187 0.011923
2190 0.0057517
2193 0.00405486
2196 0.00580329
2199 0.00912768
2202 0.0110737
2205 0.0129883
2208 0.0113113
2211 0.00658745
2214 0.004223
2217 0.00550672
2220 0.00899917
2223 0.015328
2226 0.0196566
2229 0.0176824
2232 0.0139198
2235 0.0157179
2238 0.0189843
2241 0.0106379
2244 0.00666566
2247 0.00907639
2250 0.0111875
2253 0.0141118
2256 0.0154
2259 0.013946
2262 0.0104397
2265 0.00745618
2268 0.007974
2271 0.0136319
2274 0.0193128
2277 0.024789
2280 0.0231389
2283 0.0182255
2286 0.0214737
2289 0.0209809
2292 0.00845953
2295 0.00317557
2298 0.00176912
2301 0.00134141
2304 0.000991282
2307 0.000478845
2310 0.000862772
2313 0.000386294
2316 0.000841628
2319 0.000931937
2322 0.00194138
2325 0.00489284
2328 0.00922376
2331 0.0113031
2334 0.0076315
2337 0.00290504
2340 0.00238135
2343 0.00390667
2346 0.00637997
2349 0.00833928
2352 0.00898191
2355 0.00820078
2358 0.00811664
2361 0.0103061
2364 0.0102126
2367 0.0129441
2370 0.0208886
2373 0.0317389
2376 0.0412443
2379 0.0498668
2382 0.0428219
2385 0.0240281
2388 0.0175169
2391 0.0161767
2394 0.0132186
2397 0.0125205
2400 0.0129331
2403 0.0135747
2406 0.0126361
2409 0.00968319
2412 0.0101579
2415 0.0109189
2418 0.0105781
2421 0.0127662
2424 0.0164798
2427 0.0155152
2430 0.015815
2433 0.0150708
2436 0.00991177
2439 0.00871428
2442 0.00907505
2445 0.0101041
2448 0.0111151
2451 0.0105424
2454 0.0110311
2457 0.0126153
2460 0.0150513
2463 0.0223936
2466 0.0305021
2469 0.0339005
2472 0.0362199
2475 0.0329347
2478 0.0283333
2481 0.0239567
2484 0.0179794
2487 0.00813762
2490 0.00493874
2493 0.00374681
2496 0.00342694
2499 0.00311934
2502 0.00370999
2505 0.00519109
2508 0.00991069
2511 0.0151351
2514 0.0210791
2517 0.0275486
2520 0.027503
2523 0.0267574
2526 0.0201919
2529 0.00964923
2532 0.00646746
2535 0.00717453
2538 0.00773336
2541 0.00755132
2544 0.00619854
2547 0.00562485
2550 0.00528159
2553 0.00652147
2556 0.00732455
2559 0.00832741
2562 0.00738235
2565 0.00635246
2568 0.0063169
2571 0.0084972
2574 0.0107864
2577 0.0111806
2580 0.0126513
2583 0.0137643
2586 0.0136417
2589 0.0110224
2592 0.00899273
2595 0.00850062
2598 0.00408365
2601 0.00206811
2604 0.00126672
2607 0.00138598
2610 0.00131355
2613 0.0013289
2616 0.00217512
2619 0.00348986
2622 0.00537782
2625 0.00662398
2628 0.0084567
2631 0.00987665
2634 0.00991982
2637 0.0104174
2640 0.0136066
2643 0.0176567
2646 0.0220186
2649 0.027226
2652 0.0263537
2655 0.0244967
2658 0.0214937
2661 0.0152324
2664 0.00641663
2667 0.00313914
2670 0.00152362
2673 0.00136473
2676 0.000604332
2679 0.000656319
2682 0.00151989
2685 0.00182809
2688 0.00219375
2691 0.00143166
2694 0.00133664
2697 0.00201245
2700 0.00293944
2703 0.00472444
2706 0.00718746
2709 0.00722706
2712 0.00827887
2715 0.00856724
2718 0.00929606
2721 0.0095284
2724 0.0118856
2727 0.015175
2730 0.019302
2733 0.0233708
2736 0.0236119
2739 0.0209755
2742 0.0169428
2745 0.0152878
2748 0.0126369
2751 0.00942421
2754 0.00614112
2757 0.00513934
2760 0.00468332
2763 0.00632945
2766 0.00817288
2769 0.0103954
2772 0.0125933
2775 0.0140717
2778 0.0156953
2781 0.0144657
2784 0.012011
2787 0.0113368
2790 0.0122733
2793 0.0103352
2796 0.00677621
2799 0.00570052
2802 0.00462999
2805 0.00604551
2808 0.0081914
2811 0.00904191
2814 0.00890076
2817 0.0127942
2820 0.0149219
2823 0.0124868
2826 0.00669009
2829 0.00223276
2832 0.0007116
2835 0.000333057
2838 0.000340402
2841 0.000878273
2844 0.0017131
2847 0.00413361
2850 0.0055154
2853 0.00665759
2856 0.00804462
2859 0.00800913
2862 0.00816348
2865 0.00733017
2868 0.00748494
2871 0.00881639
2874 0.00577213
2877 0.00486046
2880 0.00592699
2883 0.00739854
2886 0.0096367
2889 0.0136606
2892 0.0169737
2895 0.0201425
2898 0.0197472
2901 0.0181545
2904 0.0186535
2907 0.0194259
2910 0.0161105
2913 0.0109572
2916 0.00892121
2919 0.00831011
2922 0.00747987
2925 0.00709708
2928 0.00555095
2931 0.00467453
2934 0.0050008
2937 0.00780533
2940 0.00890371
2943 0.00805238
2946 0.00650006
2949 0.00511746
2952 0.00548457
2955 0.00603188
2958 0.00677603
2961 0.00564708
2964 0.00524974
2967 0.0057306
2970 0.00592087
2973 0.00727112
2976 0.00795522
2979 0.00825962
2982 0.00824973
2985 0.00603329
2988 0.00255099
2991 0.000955543
2994 0.000904225
2997 0.000728265
3000 0.000559698
3003 0.00217187
3006 0.00300168
3009 0.00305335
3012 0.00374924
3015 0.00447618
3018 0.00329723
3021 0.00465985
3024 0.00666186
3027 0.00776992
3030 0.00598983
3033 0.0072099
3036 0.00602587
3039 0.00731536
3042 0.0072687
3045 0.0085526
3048 0.00711711
3051 0.00678502
3054 0.00512193
3057 0.00562397
3060 0.00702271
3063 0.00927395
3066 0.00917033
3069 0.00982793
3072 0.00801109
3075 0.00817006
3078 0.00857301
3081 0.00838752
3084 0.00933939
3087 0.0100963
3090 0.00966331
3093 0.00774887
3096 0.00736997
3099 0.00939587
3102 0.00917128
3105 0.00664745
3108 0.00476696
3111 0.00564212
3114 0.00757776
3117 0.00877164
3120 0.00973146
3123 0.0138655
3126 0.0150161
3129 0.016264
3132 0.0147921
3135 0.0108478
3138 0.00784558
3141 0.00701221
3144 0.00557877
3147 0.00316044
3150 0.00274272
3153 0.00235162
3156 0.0035065
3159 0.00300621
3162 0.0047453
3165 0.00695199
3168 0.00849948
3171 0.00762678
3174 0.0066075
3177 0.00586387
3180 0.00714853
3183 0.00850165
3186 0.00818014
3189 0.0107937
3192 0.0133858
3195 0.0137078
3198 0.0145822
3201 0.0160672
3204 0.0147721
3207 0.0135756
3210 0.0116561
3213 0.0092529
3216 0.00539875
3219 0.00441228
3222 0.00312575
3225 0.00237653
3228 0.00165036
3231 0.00220745
3234 0.00263306
3237 0.00261946
3240 0.000656339
3243 0.00165328
3246 0.00157947
3249 0.00296443
3252 0.00216425
3255 0.0035566
3258 0.00327866
3261 0.00634658
3264 0.0072557
3267 0.00848464
3270 0.00841058
3273 0.00924831
3276 0.00963692
3279 0.0071559
3282 0.0063924
3285 0.0025823
3288 0.00400953
3291 0.00185081
3294 0.00126073
3297 0.00192331
3300 0.0023772
3303 0.00540573
3306 0.00158356
3309 0.00300229
3312 0.0023431
3315 0.00424436
3318 0.00454842
3321 0.0038575
3324 0.00338879
3327 0.00455099
3330 0.00541088
3333 0.00582313
3336 0.00601399
3339 0.00676449
3342 0.0106847
3345 0.00831602
3348 0.00942203
3351 0.00903474
3354 0.00837453
3357 0.00836004
3360 0.00528449
3363 0.00620024
3366 0.00502885
3369 0.00373325
3372 0.00301507
3375 0.00564286
3378 0.00568712
3381 0.00466593
3384 0.00824957
3387 0.00724814
3390 0.00678033
3393 0.00578137
3396 0.00475147
3399 0.00485459
3402 0.00589729
3405 0.00511475
3408 0.00434925
3411 0.00674856
3414 0.00563234
3417 0.00235051
3420 0.000412048
3423 0.0014979
3426 0.00575616
3429 0.00676613
3432 0.00427693
3435 0.00547786
3438 0.00686122
3441 0.00717915
3444 0.00779323
3447 0.00905081
3450 0.0102261
3453 0.0100606
3456 0.00925229
3459 0.0101296
3462 0.00968965
3465 0.00978197
3468 0.0156445
3471 0.00847521
3474 0.00790422
3477 0.0146913
3480 0.0124071
3483 0.0120494
3486 0.0160039
3487 0.000446319