File: constrainednmf/example_data/BaTiO3_xrd_ramp/BTO_315K_tth.xy
0.000000000000000000e+00 0.000684277
3 0.000826805
6 0.00106586
9 0.00315162
12 0.0127102
15 0.0145774
18 0.0139131
21 0.0132134
24 0.0136593
27 0.0135558
30 0.0111211
33 0.00485485
36 0.00357252
39 0.00359083
42 0.00370316
45 0.00377177
48 0.00374002
51 0.00374183
54 0.00374971
57 0.00383942
60 0.00386588
63 0.00391146
66 0.00390744
69 0.00392629
72 0.0039709
75 0.00403023
78 0.00414181
81 0.00427018
84 0.00436058
87 0.00438556
90 0.00430735
93 0.00427276
96 0.00418576
99 0.00413258
102 0.00407938
105 0.00411117
108 0.00406988
111 0.00403802
114 0.00409375
117 0.00400925
120 0.00399507
123 0.00393395
126 0.00382705
129 0.00387806
132 0.00386481
135 0.00377529
138 0.00372014
141 0.00372899
144 0.00369567
147 0.0036067
150 0.00364634
153 0.00361249
156 0.00351554
159 0.00349498
162 0.00348934
165 0.00338253
168 0.00335682
171 0.00334861
174 0.00334804
177 0.00320143
180 0.00322613
183 0.00316081
186 0.00308199
189 0.00305703
192 0.00306467
195 0.0029691
198 0.00295874
201 0.00288163
204 0.0029078
207 0.00289229
210 0.00278867
213 0.00284745
216 0.00276587
219 0.00275157
222 0.00263711
225 0.00263053
228 0.00273991
231 0.00274352
234 0.00270208
237 0.00268526
240 0.002591
243 0.00271445
246 0.00269832
249 0.00268689
252 0.00274432
255 0.00275403
258 0.00268094
261 0.00276214
264 0.00280065
267 0.00280057
270 0.00283151
273 0.00284466
276 0.00301306
279 0.00303326
282 0.00308472
285 0.00324842
288 0.00317112
291 0.00324961
294 0.00312082
297 0.00308256
300 0.0028008
303 0.00263696
306 0.0026529
309 0.00262677
312 0.00262164
315 0.00273318
318 0.00264784
321 0.00286333
324 0.0036472
327 0.00720078
330 0.0367665
333 0.102587
336 0.0720103
339 0.00993172
342 0.0035267
345 0.00245891
348 0.00212183
351 0.00191171
354 0.00206888
357 0.0029351
360 0.00487682
363 0.00397914
366 0.00235444
369 0.00159286
372 0.0013713
375 0.00114559
378 0.00110904
381 0.00130957
384 0.00138335
387 0.00128531
390 0.00129217
393 0.00133118
396 0.00131787
399 0.00136396
402 0.00132412
405 0.00137372
408 0.00142898
411 0.00153965
414 0.00188213
417 0.00181907
420 0.0018642
423 0.00181142
426 0.00187581
429 0.00181095
432 0.00175364
435 0.00209262
438 0.00203448
441 0.00237432
444 0.00276208
447 0.00312302
450 0.00369249
453 0.00437369
456 0.00539725
459 0.00704521
462 0.0106966
465 0.0215942
468 0.0850202
471 0.674696
474 0.817808
477 0.142133
480 0.0249093
483 0.0110676
486 0.00714863
489 0.0052351
492 0.00390215
495 0.00300064
498 0.00239117
501 0.00238531
504 0.00220464
507 0.00266174
510 0.00309575
513 0.00279595
516 0.00228557
519 0.00174753
522 0.00102868
525 0.000961722
528 0.00088598
531 0.000770526
534 0.000596252
537 0.000751871
540 0.000671927
543 0.000825282
546 0.000777845
549 0.000906791
552 0.000888772
555 0.0011924
558 0.00131478
561 0.00182607
564 0.00209228
567 0.00271966
570 0.00437837
573 0.0107831
576 0.0619953
579 0.380828
582 0.130669
585 0.0154293
588 0.0054081
591 0.00336824
594 0.00230244
597 0.0018586
600 0.00148857
603 0.00128326
606 0.0011562
609 0.00118606
612 0.00117883
615 0.00121208
618 0.00125954
621 0.00171093
624 0.00245557
627 0.00241548
630 0.00185937
633 0.00199702
636 0.0022747
639 0.00218245
642 0.00203296
645 0.00233817
648 0.00282713
651 0.00400565
654 0.00569731
657 0.00947234
660 0.0201068
663 0.0802923
666 0.190813
669 0.230154
672 0.343205
675 0.0708052
678 0.0168068
681 0.00775175
684 0.00499113
687 0.00394416
690 0.00394477
693 0.00339258
696 0.00258975
699 0.00177504
702 0.00141796
705 0.00129558
708 0.00134659
711 0.00110798
714 0.00123485
717 0.00109343
720 0.00123397
723 0.00157004
726 0.00138593
729 0.00157373
732 0.00178937
735 0.00252568
738 0.00433585
741 0.0105213
744 0.0477621
747 0.0872101
750 0.124573
753 0.0431117
756 0.0079735
759 0.00315073
762 0.00219533
765 0.00155312
768 0.00134947
771 0.00139966
774 0.00139098
777 0.00142657
780 0.00124927
783 0.00151341
786 0.00184168
789 0.00199674
792 0.00243182
795 0.00285722
798 0.00359618
801 0.00430838
804 0.00594504
807 0.00858066
810 0.0150354
813 0.0394853
816 0.18758
819 0.448953
822 0.545479
825 0.104371
828 0.0232824
831 0.0105136
834 0.00660299
837 0.00467049
840 0.00361384
843 0.00308327
846 0.00234873
849 0.00194875
852 0.00151284
855 0.00160017
858 0.00160723
861 0.00149561
864 0.00145051
867 0.00106588
870 0.000982201
873 0.000724295
876 0.000962984
879 0.000883593
882 0.00116284
885 0.00130038
888 0.00119625
891 0.000966614
894 0.000845623
897 0.00084271
900 0.000775257
903 0.000977325
906 0.00072759
909 0.000740457
912 0.000855249
915 0.000967209
918 0.00104636
921 0.00132343
924 0.00184113
927 0.00213467
930 0.00301173
933 0.00422854
936 0.00755215
939 0.0165037
942 0.0622626
945 0.269868
948 0.285964
951 0.166832
954 0.033468
957 0.0100818
960 0.00550738
963 0.00368777
966 0.00253816
969 0.00217159
972 0.00207121
975 0.00230035
978 0.00199129
981 0.00199299
984 0.00164562
987 0.00186096
990 0.00215322
993 0.00329279
996 0.00675857
999 0.0178073
1002 0.0543836
1005 0.0987042
1008 0.0600091
1011 0.0148755
1014 0.00430054
1017 0.00258101
1020 0.00187114
1023 0.00163723
1026 0.00149857
1029 0.00161773
1032 0.00182819
1035 0.00227512
1038 0.00302314
1041 0.00416378
1044 0.00630281
1047 0.0114126
1050 0.0313658
1053 0.105706
1056 0.118617
1059 0.131881
1062 0.247189
1065 0.108329
1068 0.0238322
1071 0.00962437
1074 0.00573579
1077 0.00399176
1080 0.00324311
1083 0.00325385
1086 0.00253013
1089 0.0025413
1092 0.00252443
1095 0.00330543
1098 0.00515256
1101 0.0101244
1104 0.034751
1107 0.0710518
1110 0.0699698
1113 0.126032
1116 0.0746958
1119 0.0146498
1122 0.00557692
1125 0.00271627
1128 0.00204225
1131 0.00168056
1134 0.00133347
1137 0.0012025
1140 0.00137165
1143 0.00181797
1146 0.00218478
1149 0.00321154
1152 0.00490167
1155 0.0138478
1158 0.0689125
1161 0.178399
1164 0.0520578
1167 0.00975215
1170 0.00385756
1173 0.00220925
1176 0.00167712
1179 0.00148091
1182 0.000937462
1185 0.00123715
1188 0.0015337
1191 0.00145222
1194 0.00215343
1197 0.00322024
1200 0.00687878
1203 0.0216806
1206 0.0325411
1209 0.0403478
1212 0.0330042
1215 0.0114068
1218 0.0041906
1221 0.00273831
1224 0.00262409
1227 0.00300991
1230 0.00347991
1233 0.00392753
1236 0.00513881
1239 0.00769502
1242 0.0124095
1245 0.0267946
1248 0.0943834
1251 0.222798
1254 0.296431
1257 0.274721
1260 0.0822438
1263 0.0209238
1266 0.00976981
1269 0.00589914
1272 0.0042957
1275 0.00274434
1278 0.00276009
1281 0.00198018
1284 0.00142517
1287 0.00138351
1290 0.000910581
1293 0.000731889
1296 0.000337275
1299 0.000842879
1302 0.000777441
1305 0.000746395
1308 0.000812013
1311 0.00084324
1314 0.00110219
1317 0.000858286
1320 0.00114628
1323 0.00178956
1326 0.00274153
1329 0.0072855
1332 0.018679
1335 0.0176446
1338 0.0152831
1341 0.0189703
1344 0.0380711
1347 0.0339943
1350 0.00905344
1353 0.00368276
1356 0.00250378
1359 0.00187233
1362 0.0017819
1365 0.00214759
1368 0.00312131
1371 0.00666278
1374 0.0166619
1377 0.0224574
1380 0.0394057
1383 0.0566552
1386 0.0481301
1389 0.0198412
1392 0.00622872
1395 0.00379054
1398 0.0031281
1401 0.00317152
1404 0.00451065
1407 0.00615121
1410 0.0119234
1413 0.0350051
1416 0.0614264
1419 0.0827436
1422 0.0961364
1425 0.12124
1428 0.106207
1431 0.0263501
1434 0.0103778
1437 0.00569181
1440 0.0041015
1443 0.00361346
1446 0.00376226
1449 0.00383006
1452 0.00572991
1455 0.0134634
1458 0.0428681
1461 0.0625815
1464 0.0434095
1467 0.0264085
1470 0.00723862
1473 0.00382323
1476 0.00306808
1479 0.00381075
1482 0.00467927
1485 0.00671687
1488 0.0130959
1491 0.0390889
1494 0.0672391
1497 0.0587468
1500 0.0822373
1503 0.117679
1506 0.0706794
1509 0.0188882
1512 0.00828899
1515 0.00516152
1518 0.00400661
1521 0.00400346
1524 0.00442984
1527 0.00888194
1530 0.022944
1533 0.0241221
1536 0.0249409
1539 0.0415572
1542 0.0333086
1545 0.00936744
1548 0.00388602
1551 0.00252375
1554 0.00206681
1557 0.00236745
1560 0.00307945
1563 0.00529671
1566 0.0106437
1569 0.0363067
1572 0.0995444
1575 0.0865618
1578 0.0311383
1581 0.0079394
1584 0.00377256
1587 0.00285048
1590 0.00203598
1593 0.00151293
1596 0.0014102
1599 0.00144385
1602 0.00135085
1605 0.00121256
1608 0.00127713
1611 0.00108896
1614 0.00140109
1617 0.00177748
1620 0.00156941
1623 0.00232961
1626 0.00300665
1629 0.0043424
1632 0.00759734
1635 0.0202301
1638 0.0519808
1641 0.0558655
1644 0.0798116
1647 0.10325
1650 0.0303102
1653 0.00971753
1656 0.00531641
1659 0.00433287
1662 0.00420775
1665 0.00449149
1668 0.00617156
1671 0.011219
1674 0.0152775
1677 0.0176262
1680 0.0160235
1683 0.01656
1686 0.00873866
1689 0.00598964
1692 0.00660678
1695 0.00963098
1698 0.0203209
1701 0.0376867
1704 0.0599495
1707 0.0942692
1710 0.113255
1713 0.117821
1716 0.123695
1719 0.0547348
1722 0.0178132
1725 0.0100103
1728 0.00795918
1731 0.0108775
1734 0.0163629
1737 0.0145926
1740 0.0164231
1743 0.0276174
1746 0.0279194
1749 0.0318529
1752 0.014031
1755 0.00500141
1758 0.00260914
1761 0.0017096
1764 0.00110838
1767 0.00128372
1770 0.00102303
1773 0.000801544
1776 0.000879956
1779 0.00090476
1782 0.000753664
1785 0.00112224
1788 0.00119879
1791 0.0019518
1794 0.00355142
1797 0.00777777
1800 0.0125834
1803 0.0227399
1806 0.0303455
1809 0.0367412
1812 0.0303406
1815 0.0135969
1818 0.00610585
1821 0.00581068
1824 0.00876114
1827 0.0219591
1830 0.040075
1833 0.0340496
1836 0.0310204
1839 0.0413473
1842 0.0741748
1845 0.0612455
1848 0.0186916
1851 0.00752357
1854 0.00404778
1857 0.00261202
1860 0.00178177
1863 0.000961292
1866 0.00108196
1869 0.000611342
1872 0.000762892
1875 0.000684506
1878 0.000671121
1881 0.000957848
1884 0.00162442
1887 0.0019232
1890 0.00488783
1893 0.0122282
1896 0.0270048
1899 0.0219346
1902 0.0160779
1905 0.0170282
1908 0.00801556
1911 0.00313707
1914 0.00281893
1917 0.00361547
1920 0.00705828
1923 0.0110726
1926 0.0159904
1929 0.0146571
1932 0.0171564
1935 0.0140049
1938 0.00558405
1941 0.00403237
1944 0.0051735
1947 0.0105014
1950 0.0223953
1953 0.0331291
1956 0.0522586
1959 0.0716642
1962 0.048872
1965 0.0263276
1968 0.0108093
1971 0.00678179
1974 0.00698157
1977 0.0135453
1980 0.021182
1983 0.0189218
1986 0.0228325
1989 0.0305518
1992 0.028257
1995 0.0150188
1998 0.00718072
2001 0.00812841
2004 0.00899593
2007 0.012279
2010 0.0266996
2013 0.0527985
2016 0.0457521
2019 0.0403423
2022 0.0264376
2025 0.0112967
2028 0.00668566
2031 0.00660651
2034 0.00546744
2037 0.00414509
2040 0.00425782
2043 0.00448604
2046 0.00642853
2049 0.00995312
2052 0.00947685
2055 0.0100127
2058 0.016457
2061 0.0237705
2064 0.0379305
2067 0.037286
2070 0.0430075
2073 0.0643622
2076 0.0653951
2079 0.0333788
2082 0.0115532
2085 0.00602512
2088 0.00363117
2091 0.00267834
2094 0.00247085
2097 0.0020658
2100 0.00194077
2103 0.00283945
2106 0.00301857
2109 0.00538386
2112 0.0119777
2115 0.0140814
2118 0.0111339
2121 0.0107711
2124 0.0119851
2127 0.0180708
2130 0.0311848
2133 0.0258781
2136 0.0118896
2139 0.0104325
2142 0.0109606
2145 0.012418
2148 0.0162389
2151 0.0210368
2154 0.0194923
2157 0.0201839
2160 0.0132592
2163 0.00690664
2166 0.00775887
2169 0.0148654
2172 0.0283689
2175 0.0350168
2178 0.0350021
2181 0.0277638
2184 0.0270964
2187 0.0135148
2190 0.00542483
2193 0.0043808
2196 0.00636499
2199 0.00894822
2202 0.0102148
2205 0.0141644
2208 0.013103
2211 0.004951
2214 0.00491551
2217 0.00987411
2220 0.0130585
2223 0.0105923
2226 0.00975952
2229 0.0115045
2232 0.0191469
2235 0.0296066
2238 0.0153117
2241 0.00696421
2244 0.00688941
2247 0.00807764
2250 0.0114066
2253 0.0130907
2256 0.0139805
2259 0.0137759
2262 0.0107119
2265 0.00781656
2268 0.0135317
2271 0.0171482
2274 0.0139276
2277 0.0130043
2280 0.0172114
2283 0.0281285
2286 0.0287653
2289 0.0160573
2292 0.00556564
2295 0.00299612
2298 0.00178686
2301 0.0015064
2304 0.000804032
2307 0.000691436
2310 0.000814362
2313 0.000283657
2316 0.000835568
2319 0.00134126
2322 0.00212005
2325 0.00488242
2328 0.0117306
2331 0.0122478
2334 0.00552053
2337 0.00319271
2340 0.00334844
2343 0.00502777
2346 0.00624361
2349 0.00631592
2352 0.00623607
2355 0.00874023
2358 0.0126778
2361 0.0139601
2364 0.0118985
2367 0.0116386
2370 0.0170685
2373 0.0318702
2376 0.0417081
2379 0.0447865
2382 0.0392814
2385 0.0301889
2388 0.0197454
2391 0.0109172
2394 0.00978163
2397 0.0127426
2400 0.0124964
2403 0.0100918
2406 0.0118292
2409 0.015156
2412 0.0114037
2415 0.01101
2418 0.0127655
2421 0.0112138
2424 0.0137618
2427 0.0162517
2430 0.0146447
2433 0.0156666
2436 0.0112584
2439 0.00912497
2442 0.00864298
2445 0.00816222
2448 0.00978494
2451 0.0118492
2454 0.0141466
2457 0.0195021
2460 0.0178195
2463 0.0192393
2466 0.0227913
2469 0.0272122
2472 0.0275263
2475 0.0346131
2478 0.0405476
2481 0.0268283
2484 0.0111944
2487 0.00611056
2490 0.00465469
2493 0.00370161
2496 0.00369147
2499 0.00367661
2502 0.00435851
2505 0.00635808
2508 0.0130017
2511 0.0188204
2514 0.0183837
2517 0.023249
2520 0.0287981
2523 0.0269131
2526 0.0190894
2529 0.00852235
2532 0.00568889
2535 0.0055309
2538 0.00721843
2541 0.00836015
2544 0.00726853
2547 0.00791987
2550 0.00756646
2553 0.00655258
2556 0.0046193
2559 0.00463934
2562 0.00525865
2565 0.00740602
2568 0.0112558
2571 0.0133855
2574 0.010274
2577 0.00747034
2580 0.00927489
2583 0.0118589
2586 0.0114984
2589 0.0140496
2592 0.0128067
2595 0.00693944
2598 0.00360543
2601 0.00144472
2604 0.000526937
2607 0.00111566
2610 0.00153595
2613 0.00134385
2616 0.00208033
2619 0.00420179
2622 0.00670664
2625 0.00669355
2628 0.00876291
2631 0.0094916
2634 0.0110792
2637 0.0131515
2640 0.0152252
2643 0.0178378
2646 0.0200832
2649 0.0211876
2652 0.0204746
2655 0.0251702
2658 0.0257572
2661 0.012349
2664 0.00448666
2667 0.00284721
2670 0.00194798
2673 0.00124085
2676 0.00170011
2679 0.0012973
2682 0.00111808
2685 0.0017632
2688 0.00102438
2691 0.00144015
2694 0.00171982
2697 0.00338989
2700 0.00517526
2703 0.0060003
2706 0.00617639
2709 0.00707891
2712 0.00822156
2715 0.00967285
2718 0.00989662
2721 0.0131014
2724 0.0154983
2727 0.012379
2730 0.0137293
2733 0.0182632
2736 0.0224505
2739 0.0217483
2742 0.0201837
2745 0.018173
2748 0.00949179
2751 0.00556091
2754 0.00473955
2757 0.00550908
2760 0.0085318
2763 0.00875904
2766 0.0063711
2769 0.00763046
2772 0.010066
2775 0.0113209
2778 0.0158813
2781 0.0178556
2784 0.0147626
2787 0.013732
2790 0.00815841
2793 0.005181
2796 0.00463812
2799 0.00526728
2802 0.00624719
2805 0.00849499
2808 0.0069758
2811 0.00908109
2814 0.0115498
2817 0.0138995
2820 0.0109358
2823 0.0101869
2826 0.00549632
2829 0.00200386
2832 0.00119767
2835 0.000000000000000000e+00
2838 0.00189267
2841 0.00320129
2844 0.00314464
2847 0.00320679
2850 0.00464824
2853 0.00631225
2856 0.00682856
2859 0.00592285
2862 0.00707121
2865 0.0106518
2868 0.0116163
2871 0.00701643
2874 0.00588245
2877 0.00553478
2880 0.0066749
2883 0.00905979
2886 0.0125146
2889 0.0148302
2892 0.0124767
2895 0.0116298
2898 0.0141511
2901 0.0199536
2904 0.0243795
2907 0.0221981
2910 0.0134133
2913 0.00919538
2916 0.00767369
2919 0.00918773
2922 0.00494774
2925 0.00655292
2928 0.00619688
2931 0.00615067
2934 0.00784275
2937 0.00629373
2940 0.00593407
2943 0.00694247
2946 0.00601487
2949 0.00356929
2952 0.00470156
2955 0.00477163
2958 0.00541559
2961 0.00755255
2964 0.00740965
2967 0.00766194
2970 0.00586319
2973 0.00636228
2976 0.00596934
2979 0.00798982
2982 0.00646667
2985 0.00562757
2988 0.00371796
2991 0.000779511
2994 0.00125495
2997 0.000987352
3000 0.0024874
3003 0.00217144
3006 0.00182474
3009 0.00217931
3012 0.00378717
3015 0.00329985
3018 0.00567771
3021 0.00704888
3024 0.00633001
3027 0.00806361
3030 0.00558944
3033 0.00620474
3036 0.00633725
3039 0.00790008
3042 0.0067603
3045 0.00575892
3048 0.00331938
3051 0.00419856
3054 0.00442269
3057 0.00588253
3060 0.0108301
3063 0.0101112
3066 0.00835745
3069 0.0072737
3072 0.00901097
3075 0.0103077
3078 0.0104835
3081 0.0095577
3084 0.00774474
3087 0.00536462
3090 0.0059406
3093 0.00873741
3096 0.0119244
3099 0.0108257
3102 0.00754716
3105 0.00550329
3108 0.00606471
3111 0.00662307
3114 0.00558367
3117 0.00852263
3120 0.00983226
3123 0.011581
3126 0.0139056
3129 0.0133507
3132 0.010846
3135 0.0113975
3138 0.0095581
3141 0.0064578
3144 0.00386481
3147 0.00301904
3150 0.00328508
3153 0.00193891
3156 0.00374929
3159 0.00569355
3162 0.00722042
3165 0.00812484
3168 0.00783358
3171 0.00695819
3174 0.00506564
3177 0.00557871
3180 0.00669937
3183 0.00718726
3186 0.00988177
3189 0.0125169
3192 0.0116837
3195 0.0109526
3198 0.0101702
3201 0.014375
3204 0.0138446
3207 0.0146703
3210 0.0122517
3213 0.00667474
3216 0.00448587
3219 0.00242614
3222 0.00177125
3225 0.00432233
3228 0.00464291
3231 0.00313321
3234 0.00327391
3237 0.00294149
3240 0.000191729
3243 0.00204822
3246 0.00257498
3249 0.00244792
3252 0.00317163
3255 0.00610285
3258 0.00462828
3261 0.00656241
3264 0.00696019
3267 0.00832587
3270 0.00823121
3273 0.00791658
3276 0.00650677
3279 0.00889542
3282 0.00690656
3285 0.00307548
3288 0.0013719
3291 0.00312029
3294 0.00205261
3297 0.00252588
3300 0.00376099
3303 0.00229382
3306 0.00338452
3309 0.00441598
3312 0.00581683
3315 0.00393835
3318 0.00321713
3321 0.00498149
3324 0.00299918
3327 0.00408915
3330 0.0054384
3333 0.00577599
3336 0.00448414
3339 0.00712856
3342 0.00787623
3345 0.0111058
3348 0.00797482
3351 0.0112438
3354 0.010277
3357 0.0071062
3360 0.00738821
3363 0.00668121
3366 0.00459384
3369 0.00489335
3372 0.00690712
3375 0.00412174
3378 0.00294209
3381 0.00245617
3384 0.00535813
3387 0.00544932
3390 0.00556672
3393 0.00593892
3396 0.00578916
3399 0.00601634
3402 0.00511848
3405 0.00590172
3408 0.00222125
3411 0.00128643
3414 0.00165331
3417 0.004744
3420 0.000489095
3423 0.00338917
3426 0.00364633
3429 0.00102546
3432 0.00356973
3435 0.00447754
3438 0.00310074
3441 0.00439258
3444 0.0063929
3447 0.00431877
3450 0.0041254
3453 0.00773199
3456 0.00813544
3459 0.00606019
3462 0.00760853
3465 0.0116418
3468 0.00562931
3471 0.0101894
3474 0.00482713
3477 0.00585319
3480 0.0143715
3483 0.0198678
3486 0.010444
3487 0.0220112