File: constrainednmf/example_data/BaTiO3_xrd_ramp/BTO_205K_tth.xy
0.000000000000000000e+00 0.000564431
3 0.000666374
6 0.000894701
9 0.00267021
12 0.0105412
15 0.0123526
18 0.0118297
21 0.0112247
24 0.0115968
27 0.0115829
30 0.0095108
33 0.00418512
36 0.00310752
39 0.00317512
42 0.00326989
45 0.00334298
48 0.00331594
51 0.00330569
54 0.00336358
57 0.00336026
60 0.00340518
63 0.00349762
66 0.00348171
69 0.00352343
72 0.00356549
75 0.00363093
78 0.00373763
81 0.00386253
84 0.00389729
87 0.00393512
90 0.00390904
93 0.00386004
96 0.00383008
99 0.00376028
102 0.00369898
105 0.00374225
108 0.00373291
111 0.00372435
114 0.00367211
117 0.00367953
120 0.00363107
123 0.00367058
126 0.00362386
129 0.00360176
132 0.00355468
135 0.00358675
138 0.00351355
141 0.0034403
144 0.00352674
147 0.00339584
150 0.00336894
153 0.00329249
156 0.00327642
159 0.00328937
162 0.00327589
165 0.00320157
168 0.00317623
171 0.00317913
174 0.00307324
177 0.00301518
180 0.00303325
183 0.00298949
186 0.00291226
189 0.00286642
192 0.00287647
195 0.0028518
198 0.0027608
201 0.00272838
204 0.00274843
207 0.00271991
210 0.00262003
213 0.00268677
216 0.00259171
219 0.00261647
222 0.00258518
225 0.00254866
228 0.00254332
231 0.00254482
234 0.00250612
237 0.00249895
240 0.00244406
243 0.00246565
246 0.0025359
249 0.00252073
252 0.00250492
255 0.00252995
258 0.00254437
261 0.00249548
264 0.00256267
267 0.00253454
270 0.00256201
273 0.00254356
276 0.00263432
279 0.00268541
282 0.00277616
285 0.00285451
288 0.00279491
291 0.00290193
294 0.00293158
297 0.00277962
300 0.00262766
303 0.0024717
306 0.00243177
309 0.00241694
312 0.00248189
315 0.00255393
318 0.00255451
321 0.00272805
324 0.00339016
327 0.00594597
330 0.0257416
333 0.110957
336 0.0692241
339 0.0119128
342 0.00964601
345 0.00667213
348 0.0024529
351 0.00196258
354 0.00201684
357 0.00272885
360 0.00476116
363 0.00440208
366 0.0028361
369 0.00164007
372 0.00139018
375 0.00129628
378 0.00124431
381 0.00134266
384 0.00148435
387 0.00366678
390 0.00364311
393 0.00132218
396 0.00147088
399 0.00144325
402 0.0013562
405 0.00131356
408 0.00131182
411 0.00153432
414 0.00168935
417 0.00185181
420 0.00168103
423 0.00170314
426 0.00191189
429 0.00155134
432 0.00172842
435 0.00162448
438 0.00175318
441 0.00211053
444 0.00239474
447 0.00278935
450 0.00331086
453 0.00395487
456 0.00486745
459 0.00643805
462 0.00953861
465 0.018567
468 0.0690399
471 0.499197
474 0.935384
477 0.159852
480 0.0268984
483 0.0112406
486 0.00694411
489 0.0051428
492 0.00390583
495 0.00306718
498 0.00241124
501 0.00423487
504 0.00217127
507 0.00220492
510 0.0028517
513 0.00293051
516 0.00228988
519 0.00141145
522 0.000921071
525 0.000814239
528 0.00065415
531 0.000574268
534 0.000549611
537 0.000665411
540 0.000683199
543 0.000622535
546 0.000646833
549 0.000762014
552 0.000731431
555 0.00101108
558 0.00109392
561 0.00144572
564 0.00190766
567 0.00250716
570 0.00390135
573 0.00883969
576 0.0482845
579 0.315803
582 0.181983
585 0.019656
588 0.0059318
591 0.00343648
594 0.00368304
597 0.00241
600 0.00165928
603 0.0012323
606 0.00109341
609 0.00120013
612 0.00106748
615 0.00119019
618 0.00129834
621 0.00148768
624 0.00250213
627 0.00235259
630 0.00218338
633 0.00220752
636 0.00222843
639 0.00222997
642 0.00235282
645 0.00359796
648 0.00593551
651 0.00401306
654 0.00524164
657 0.00799249
660 0.0142575
663 0.0369711
666 0.161285
669 0.343465
672 0.230679
675 0.10832
678 0.0223605
681 0.00891827
684 0.00567594
687 0.00655288
690 0.00384295
693 0.00393657
696 0.00350063
699 0.00580781
702 0.00193586
705 0.00144216
708 0.00161786
711 0.00255631
714 0.00119254
717 0.00117032
720 0.0010478
723 0.00131952
726 0.00119725
729 0.00124281
732 0.0015033
735 0.0020428
738 0.0030711
741 0.00701391
744 0.0268747
747 0.100032
750 0.114853
753 0.0522737
756 0.0101386
759 0.00324651
762 0.00194944
765 0.0013313
768 0.00101228
771 0.000878467
774 0.0012411
777 0.00302181
780 0.00165597
783 0.00120947
786 0.00145189
789 0.00154704
792 0.00175926
795 0.00218702
798 0.00270416
801 0.00361979
804 0.00484188
807 0.00695601
810 0.011877
813 0.0278451
816 0.115671
819 0.456424
822 0.517874
825 0.156848
828 0.0296693
831 0.0114154
834 0.00647618
837 0.00452981
840 0.00332
843 0.0024944
846 0.00206071
849 0.00145643
852 0.00128495
855 0.00116019
858 0.000976894
861 0.00126494
864 0.00110086
867 0.00099925
870 0.000936059
873 0.000858702
876 0.000926299
879 0.00423507
882 0.00138031
885 0.00117439
888 0.00125929
891 0.000989011
894 0.000594141
897 0.000898554
900 0.000664224
903 0.000663423
906 0.000770745
909 0.000794618
912 0.000622006
915 0.000931715
918 0.000976673
921 0.00122528
924 0.00156246
927 0.0025734
930 0.00288518
933 0.00379291
936 0.00630318
939 0.0142718
942 0.053139
945 0.163341
948 0.340589
951 0.20169
954 0.0370586
957 0.0116382
960 0.00585651
963 0.0040215
966 0.0028944
969 0.00237537
972 0.00233919
975 0.00328539
978 0.00313428
981 0.00262309
984 0.00240158
987 0.00211711
990 0.00221018
993 0.00275304
996 0.00507404
999 0.0125126
1002 0.0463868
1005 0.0967409
1008 0.0703987
1011 0.0188897
1014 0.00625612
1017 0.00275141
1020 0.00202467
1023 0.00182139
1026 0.00157885
1029 0.0016809
1032 0.00191929
1035 0.00201557
1038 0.00273623
1041 0.00331239
1044 0.00499498
1047 0.00806748
1050 0.0160405
1053 0.0444427
1056 0.143207
1059 0.227817
1062 0.159703
1065 0.125132
1068 0.0434076
1071 0.0129731
1074 0.00649666
1077 0.00415323
1080 0.00327871
1083 0.00299843
1086 0.0026198
1089 0.00281978
1092 0.00329474
1095 0.00403528
1098 0.00430436
1101 0.00683304
1104 0.0153917
1107 0.0530303
1110 0.116586
1113 0.102483
1116 0.0738377
1119 0.0279416
1122 0.00763535
1125 0.00303618
1128 0.00217912
1131 0.00145658
1134 0.00126216
1137 0.00132013
1140 0.00146334
1143 0.00176845
1146 0.0020033
1149 0.00284049
1152 0.0040891
1155 0.0112685
1158 0.0516835
1161 0.138885
1164 0.0991696
1167 0.0157163
1170 0.00475306
1173 0.00225927
1176 0.00174498
1179 0.0011864
1182 0.000973002
1185 0.00101471
1188 0.00102563
1191 0.00121759
1194 0.00157275
1197 0.00232941
1200 0.00474836
1203 0.0138515
1206 0.0291958
1209 0.0455236
1212 0.0349422
1215 0.0137418
1218 0.00438479
1221 0.00280574
1224 0.00238733
1227 0.00233983
1230 0.00270622
1233 0.00338932
1236 0.00416899
1239 0.00599073
1242 0.00985371
1245 0.0198793
1248 0.0594709
1251 0.172142
1254 0.321138
1257 0.293892
1260 0.123936
1263 0.0295472
1266 0.0117432
1269 0.00624321
1272 0.00395234
1275 0.00262688
1278 0.00219196
1281 0.00174705
1284 0.00124819
1287 0.00106525
1290 0.000874297
1293 0.0010057
1296 0.00080335
1299 0.000586092
1302 0.000526617
1305 0.000617069
1308 0.000480901
1311 0.000625454
1314 0.000841786
1317 0.000754174
1320 0.00100215
1323 0.00146771
1326 0.00190456
1329 0.00313031
1332 0.00626028
1335 0.0165064
1338 0.0359654
1341 0.0334166
1344 0.0229181
1347 0.0200648
1350 0.018775
1353 0.00679276
1356 0.00330777
1359 0.00231856
1362 0.00196693
1365 0.00217921
1368 0.00240626
1371 0.00353498
1374 0.00764771
1377 0.0208506
1380 0.0489323
1383 0.0603255
1386 0.044047
1389 0.0218065
1392 0.011709
1395 0.0045516
1398 0.00319239
1401 0.00311426
1404 0.00382234
1407 0.00491115
1410 0.00763667
1413 0.0149146
1416 0.0402505
1419 0.0916788
1422 0.131296
1425 0.124971
1428 0.0803629
1431 0.0501665
1434 0.0165551
1437 0.00742137
1440 0.00466689
1443 0.00382857
1446 0.00331647
1449 0.00369888
1452 0.0054987
1455 0.0128743
1458 0.0269766
1461 0.0493663
1464 0.0695041
1467 0.0320002
1470 0.00896043
1473 0.00426639
1476 0.00367989
1479 0.00369038
1482 0.00420153
1485 0.00541568
1488 0.00878357
1491 0.0175216
1494 0.0442507
1497 0.087123
1500 0.116271
1503 0.0872341
1506 0.0736423
1509 0.0364499
1512 0.0116678
1515 0.00648165
1518 0.00447724
1521 0.00390858
1524 0.00412577
1527 0.00594971
1530 0.0123527
1533 0.0271407
1536 0.0415053
1539 0.037453
1542 0.0288935
1545 0.0181828
1548 0.00617804
1551 0.00341452
1554 0.00254736
1557 0.00248048
1560 0.00326829
1563 0.00483787
1566 0.00987619
1569 0.0306129
1572 0.0646538
1575 0.104385
1578 0.0574687
1581 0.0138261
1584 0.00554602
1587 0.00321651
1590 0.00214564
1593 0.00237568
1596 0.00180901
1599 0.00169006
1602 0.00151794
1605 0.00165186
1608 0.00136521
1611 0.00163989
1614 0.00151238
1617 0.00166536
1620 0.00199598
1623 0.00209028
1626 0.00245404
1629 0.00357152
1632 0.00589672
1635 0.0114859
1638 0.031268
1641 0.0680539
1644 0.0941712
1647 0.0826119
1650 0.0545273
1653 0.0183916
1656 0.00779481
1659 0.00471655
1662 0.00401579
1665 0.00377654
1668 0.00552857
1671 0.00947471
1674 0.013843
1677 0.0199821
1680 0.0209278
1683 0.0161635
1686 0.00909841
1689 0.00685185
1692 0.00586115
1695 0.00731782
1698 0.010591
1701 0.0199677
1704 0.0492617
1707 0.0910595
1710 0.134296
1713 0.148119
1716 0.112945
1719 0.0592362
1722 0.0337841
1725 0.0147765
1728 0.00846898
1731 0.0067651
1734 0.00832425
1737 0.0148224
1740 0.0280471
1743 0.0345186
1746 0.0320246
1749 0.0199441
1752 0.0149455
1755 0.0117642
1758 0.00459862
1761 0.00241279
1764 0.00184442
1767 0.000881044
1770 0.000937574
1773 0.000853006
1776 0.000823442
1779 0.000842669
1782 0.000862064
1785 0.00112973
1788 0.00153953
1791 0.00172012
1794 0.00254008
1797 0.00450263
1800 0.00963811
1803 0.0220476
1806 0.0336626
1809 0.0407038
1812 0.0317354
1815 0.0163787
1818 0.00994528
1821 0.00622901
1824 0.00592894
1827 0.00910022
1830 0.0187457
1833 0.0406989
1836 0.0663483
1839 0.0682224
1842 0.0507641
1845 0.0430795
1848 0.0390979
1851 0.0159942
1854 0.00611837
1857 0.00331694
1860 0.00190054
1863 0.00166118
1866 0.00104777
1869 0.00105184
1872 0.000444957
1875 0.000647107
1878 0.000846862
1881 0.00138838
1884 0.00128549
1887 0.00222635
1890 0.00518533
1893 0.0092507
1896 0.0134884
1899 0.0230376
1902 0.0312639
1905 0.0224699
1908 0.00766201
1911 0.00380619
1914 0.00288959
1917 0.00288701
1920 0.00500805
1923 0.0104572
1926 0.0148542
1929 0.0197105
1932 0.020334
1935 0.0142811
1938 0.00817933
1941 0.00480149
1944 0.00447022
1947 0.0073803
1950 0.0148147
1953 0.0290772
1956 0.0526768
1959 0.0709259
1962 0.0657114
1965 0.0361441
1968 0.0176105
1971 0.00813156
1974 0.00655829
1977 0.00892895
1980 0.0152046
1983 0.0225088
1986 0.033125
1989 0.0318988
1992 0.0256811
1995 0.0208463
1998 0.00978092
2001 0.00615728
2004 0.00691071
2007 0.0131542
2010 0.0251743
2013 0.0358618
2016 0.056447
2019 0.0580554
2022 0.028802
2025 0.0123005
2028 0.00871545
2031 0.00607173
2034 0.00516091
2037 0.00717734
2040 0.00879986
2043 0.00766365
2046 0.00623537
2049 0.0053617
2052 0.00642037
2055 0.00758649
2058 0.00974538
2061 0.0148596
2064 0.0321418
2067 0.0536193
2070 0.0668082
2073 0.0664766
2076 0.0534147
2079 0.038488
2082 0.0226481
2085 0.0124359
2088 0.00576307
2091 0.00337805
2094 0.00255418
2097 0.00210039
2100 0.00174657
2103 0.00222616
2106 0.0021572
2109 0.00299202
2112 0.00456894
2115 0.00789592
2118 0.0154233
2121 0.0242894
2124 0.0268935
2127 0.0215719
2130 0.0169847
2133 0.0162984
2136 0.0183793
2139 0.0132591
2142 0.0103924
2145 0.0147498
2148 0.0209107
2151 0.0250746
2154 0.0254257
2157 0.0194366
2160 0.0124182
2163 0.0106978
2166 0.00938532
2169 0.013541
2172 0.0176777
2175 0.0266823
2178 0.0413961
2181 0.0463366
2184 0.0366688
2187 0.0171921
2190 0.00704316
2193 0.00463544
2196 0.00489028
2199 0.0088296
2202 0.0112457
2205 0.0138527
2208 0.0135747
2211 0.00858609
2214 0.0050563
2217 0.00431596
2220 0.00689462
2223 0.0136918
2226 0.0199737
2229 0.0231623
2232 0.0194498
2235 0.0152565
2238 0.0155047
2241 0.0144794
2244 0.0086452
2247 0.00864642
2250 0.0109664
2253 0.0145439
2256 0.0175927
2259 0.0165074
2262 0.0116676
2265 0.00797579
2268 0.00714716
2271 0.0111391
2274 0.0174629
2277 0.0255838
2280 0.0307422
2283 0.0250033
2286 0.0197102
2289 0.0195504
2292 0.0139283
2295 0.00533324
2298 0.00230155
2301 0.00149067
2304 0.0010538
2307 0.000778196
2310 0.000617836
2313 0.00041943
2316 0.000721177
2319 0.000751459
2322 0.00175105
2325 0.00413699
2328 0.00739426
2331 0.0103124
2334 0.0117215
2337 0.00439564
2340 0.00321972
2343 0.00358702
2346 0.00598875
2349 0.00866484
2352 0.0102001
2355 0.0103973
2358 0.00921341
2361 0.00878504
2364 0.0100704
2367 0.0115659
2370 0.019403
2373 0.0316531
2376 0.0404479
2379 0.0516581
2382 0.0545905
2385 0.0338366
2388 0.0174454
2391 0.0147767
2394 0.0156434
2397 0.0140793
2400 0.014946
2403 0.0152501
2406 0.0153173
2409 0.0115091
2412 0.00845241
2415 0.00979572
2418 0.0108979
2421 0.011995
2424 0.0175419
2427 0.0193057
2430 0.0171292
2433 0.0156961
2436 0.0126546
2439 0.00926773
2442 0.00932843
2445 0.011075
2448 0.0126322
2451 0.0123893
2454 0.0112262
2457 0.0118961
2460 0.013175
2463 0.0199333
2466 0.029246
2469 0.0374966
2472 0.0422688
2475 0.0420371
2478 0.034494
2481 0.0241352
2484 0.0185556
2487 0.013365
2490 0.00653251
2493 0.00410018
2496 0.00353825
2499 0.00276382
2502 0.00327504
2505 0.0044269
2508 0.00835504
2511 0.0132664
2514 0.0188
2517 0.0287306
2520 0.0327441
2523 0.0293379
2526 0.0240411
2529 0.0136664
2532 0.00742641
2535 0.00743906
2538 0.00790917
2541 0.00802538
2544 0.00777859
2547 0.00581855
2550 0.00437175
2553 0.00617112
2556 0.00676351
2559 0.00887979
2562 0.00958892
2565 0.00843568
2568 0.00684757
2571 0.00693592
2574 0.00934536
2577 0.0113496
2580 0.0132856
2583 0.0152141
2586 0.0161611
2589 0.0145492
2592 0.00987046
2595 0.00743232
2598 0.00583289
2601 0.00355145
2604 0.00151473
2607 0.00126765
2610 0.000812627
2613 0.000966543
2616 0.0020334
2619 0.00323894
2622 0.00515872
2625 0.00714582
2628 0.00934103
2631 0.0109075
2634 0.0110574
2637 0.0105839
2640 0.0124401
2643 0.0154727
2646 0.0212103
2649 0.0292286
2652 0.0323124
2655 0.03015
2658 0.0243522
2661 0.0169901
2664 0.0107852
2667 0.00381031
2670 0.00223485
2673 0.00105618
2676 0.000765346
2679 0.000891376
2682 0.000880122
2685 0.00131896
2688 0.00278574
2691 0.00229591
2694 0.00154729
2697 0.0019669
2700 0.00258398
2703 0.00403527
2706 0.00596043
2709 0.0082887
2712 0.00916604
2715 0.00986309
2718 0.0102868
2721 0.00991035
2724 0.0108124
2727 0.0149644
2730 0.019404
2733 0.0248238
2736 0.027787
2739 0.0273956
2742 0.020725
2745 0.0156105
2748 0.012841
2751 0.0108704
2754 0.00854471
2757 0.00637805
2760 0.00534714
2763 0.00551427
2766 0.00700736
2769 0.009821
2772 0.0134552
2775 0.0144145
2778 0.0174196
2781 0.0187844
2784 0.014716
2787 0.0112124
2790 0.0110216
2793 0.0126368
2796 0.0107608
2799 0.00805131
2802 0.00651709
2805 0.00648562
2808 0.00679585
2811 0.00908332
2814 0.00962114
2817 0.0120187
2820 0.0161912
2823 0.015904
2826 0.0106141
2829 0.00390357
2832 0.00144709
2835 0.00075244
2838 0.000600465
2841 0.00129587
2844 0.00115987
2847 0.0032061
2850 0.00488366
2853 0.00656225
2856 0.00869764
2859 0.0096692
2862 0.00892867
2865 0.00907552
2868 0.00748322
2871 0.0068184
2874 0.00758648
2877 0.00671861
2880 0.00576325
2883 0.00684406
2886 0.00894407
2889 0.012147
2892 0.0171266
2895 0.022603
2898 0.0250019
2901 0.0250098
2904 0.0208769
2907 0.0203489
2910 0.0168899
2913 0.0136041
2916 0.0124142
2919 0.0103744
2922 0.00875992
2925 0.00783339
2928 0.00699706
2931 0.00531932
2934 0.00500396
2937 0.00658213
2940 0.00836579
2943 0.0102311
2946 0.00843527
2949 0.00576647
2952 0.00660872
2955 0.0065573
2958 0.00715715
2961 0.00695743
2964 0.0059877
2967 0.00535782
2970 0.00617701
2973 0.00736967
2976 0.00929594
2979 0.00938184
2982 0.00917979
2985 0.00726254
2988 0.00461919
2991 0.00238862
2994 0.00138696
2997 0.000930778
3000 0.000263919
3003 0.00151512
3006 0.00263507
3009 0.00243365
3012 0.00407939
3015 0.00503496
3018 0.0048245
3021 0.00534426
3024 0.00619475
3027 0.00719112
3030 0.00842312
3033 0.00753848
3036 0.00710182
3039 0.00780869
3042 0.00747369
3045 0.00808366
3048 0.00919669
3051 0.00917903
3054 0.00778873
3057 0.00631997
3060 0.00708963
3063 0.00842808
3066 0.00923259
3069 0.00904714
3072 0.011215
3075 0.0100334
3078 0.00842984
3081 0.00954252
3084 0.00896487
3087 0.00987365
3090 0.0124125
3093 0.0107216
3096 0.00916801
3099 0.00755537
3102 0.00772093
3105 0.00914026
3108 0.00645137
3111 0.00595584
3114 0.00734184
3117 0.010161
3120 0.0115504
3123 0.0132722
3126 0.016386
3129 0.0170401
3132 0.0187368
3135 0.0159353
3138 0.011185
3141 0.0059882
3144 0.00618679
3147 0.00423333
3150 0.00273119
3153 0.00196397
3156 0.00283284
3159 0.00543914
3162 0.00483785
3165 0.00636631
3168 0.00881385
3171 0.010448
3174 0.00770608
3177 0.00684523
3180 0.0085242
3183 0.00918312
3186 0.00941533
3189 0.0118365
3192 0.0114847
3195 0.0146115
3198 0.016037
3201 0.017726
3204 0.0186359
3207 0.0163229
3210 0.0128235
3213 0.0124274
3216 0.00957805
3219 0.00658484
3222 0.00381651
3225 0.00216859
3228 0.00236974
3231 0.0020628
3234 0.00186442
3237 0.00300574
3240 0.00134025
3243 0.00221235
3246 0.000826226
3249 0.00259987
3252 0.00238769
3255 0.00334592
3258 0.00415199
3261 0.0057489
3264 0.0073559
3267 0.00798782
3270 0.0101014
3273 0.0109089
3276 0.0100147
3279 0.010043
3282 0.00558148
3285 0.00403321
3288 0.00367976
3291 0.00157153
3294 0.000000000000000000e+00
3297 0.00144257
3300 0.00111806
3303 0.00256938
3306 0.00250365
3309 0.00349841
3312 0.00401138
3315 0.00287574
3318 0.00380351
3321 0.00165193
3324 0.00330777
3327 0.0041526
3330 0.00527327
3333 0.00524477
3336 0.00615704
3339 0.00894521
3342 0.0111147
3345 0.0117657
3348 0.0109641
3351 0.010447
3354 0.00893043
3357 0.00916392
3360 0.00672955
3363 0.00509048
3366 0.00682996
3369 0.00376227
3372 0.00571885
3375 0.0052244
3378 0.00512329
3381 0.00443355
3384 0.00557111
3387 0.00476177
3390 0.00597825
3393 0.00562206
3396 0.00610661
3399 0.00664067
3402 0.00652639
3405 0.00687628
3408 0.00746824
3411 0.0062432
3414 0.00399127
3417 0.00206715
3420 0.00195848
3423 0.00297681
3426 0.00105204
3429 0.00309297
3432 0.00414453
3435 0.000805845
3438 0.0062328
3441 0.00579862
3444 0.00851498
3447 0.0116715
3450 0.00863552
3453 0.0124906
3456 0.00867309
3459 0.00640815
3462 0.00899003
3465 0.00634835
3468 0.0091742
3471 0.00848995
3474 0.0139487
3477 0.00769077
3480 0.00194242
3483 0.0114204
3486 0.00680779
3487 0.00538605