File: constrainednmf/example_data/BaTiO3_xrd_ramp/BTO_250K_tth.xy
0.000000000000000000e+00 0.000419542
3 0.000487738
6 0.000663884
9 0.00243222
12 0.010274
15 0.0117574
18 0.0111918
21 0.0106223
24 0.010966
27 0.010923
30 0.00894463
33 0.00367686
36 0.0026682
39 0.00266483
42 0.0028015
45 0.00284928
48 0.00279321
51 0.00281531
54 0.00283946
57 0.00291452
60 0.00294618
63 0.003015
66 0.00300296
69 0.0030556
72 0.00311294
75 0.00318497
78 0.00329084
81 0.00339331
84 0.0034611
87 0.00354055
90 0.00347254
93 0.00341752
96 0.00344723
99 0.00335527
102 0.00336674
105 0.00335077
108 0.00336221
111 0.00333119
114 0.00342428
117 0.0033103
120 0.00331029
123 0.00325709
126 0.00333306
129 0.00332037
132 0.00327571
135 0.00322986
138 0.00326708
141 0.00317676
144 0.00321826
147 0.00319242
150 0.00318154
153 0.00307834
156 0.00310239
159 0.00310425
162 0.0030731
165 0.00299709
168 0.00300935
171 0.00296552
174 0.00297677
177 0.00291229
180 0.00290109
183 0.00283001
186 0.00282632
189 0.00280227
192 0.00272008
195 0.00273358
198 0.00268877
201 0.00264755
204 0.00263426
207 0.00261453
210 0.00255063
213 0.00260238
216 0.00260316
219 0.00258118
222 0.00251417
225 0.00248597
228 0.00252114
231 0.00255318
234 0.00254615
237 0.00252043
240 0.00256399
243 0.00250245
246 0.0025136
249 0.00260266
252 0.00254009
255 0.00262035
258 0.00252433
261 0.00260534
264 0.00260327
267 0.00260538
270 0.00262768
273 0.00265762
276 0.00281096
279 0.00278376
282 0.00285597
285 0.002926
288 0.0029938
291 0.00302848
294 0.00300794
297 0.00286806
300 0.00264179
303 0.00258243
306 0.00252262
309 0.00249189
312 0.00252978
315 0.00254192
318 0.00262203
321 0.00279902
324 0.00334876
327 0.00591809
330 0.0278418
333 0.108566
336 0.0656422
339 0.010258
342 0.00370687
345 0.00240579
348 0.00202061
351 0.00173887
354 0.00182134
357 0.00252479
360 0.00456487
363 0.00391466
366 0.00245277
369 0.00151765
372 0.00121487
375 0.00121215
378 0.00109793
381 0.00110567
384 0.00123765
387 0.00116658
390 0.00115574
393 0.00111537
396 0.00113821
399 0.0010788
402 0.00107468
405 0.00122686
408 0.00123179
411 0.00148947
414 0.00151316
417 0.0017354
420 0.00157612
423 0.0016408
426 0.00172743
429 0.00148275
432 0.00150175
435 0.00156286
438 0.0017227
441 0.00202827
444 0.00233618
447 0.00260681
450 0.00318438
453 0.0038029
456 0.00477566
459 0.00640028
462 0.00964104
465 0.0194904
468 0.0781967
471 0.565012
474 0.851611
477 0.130783
480 0.0237882
483 0.0103837
486 0.00661419
489 0.00470585
492 0.00348481
495 0.00265932
498 0.00222316
501 0.00183201
504 0.00180737
507 0.00217106
510 0.00261703
513 0.00256915
516 0.00198072
519 0.00124318
522 0.000877395
525 0.000624902
528 0.000431604
531 0.00046534
534 0.00059124
537 0.000400725
540 0.000444699
543 0.000470965
546 0.000507881
549 0.000471585
552 0.000755132
555 0.00071831
558 0.000873949
561 0.00120604
564 0.00173578
567 0.00228668
570 0.00385571
573 0.00927417
576 0.0556227
579 0.344947
582 0.139993
585 0.0157225
588 0.00497689
591 0.00310375
594 0.00237368
597 0.0016674
600 0.00141591
603 0.00103965
606 0.000819371
609 0.000749696
612 0.000750959
615 0.000880734
618 0.00082782
621 0.00127292
624 0.00229311
627 0.0020103
630 0.0017832
633 0.00171996
636 0.00185698
639 0.00176043
642 0.00174877
645 0.00191066
648 0.00252047
651 0.00339021
654 0.00501946
657 0.00801892
660 0.0156601
663 0.0456161
666 0.195024
669 0.295619
672 0.233767
675 0.0896743
678 0.0181979
681 0.00752313
684 0.00461768
687 0.00346238
690 0.00350825
693 0.00326639
696 0.00232213
699 0.00159207
702 0.00116406
705 0.00103227
708 0.00113246
711 0.000959939
714 0.00076387
717 0.00083448
720 0.000874753
723 0.00118915
726 0.00105596
729 0.00110397
732 0.00149664
735 0.00223991
738 0.00341116
741 0.00827429
744 0.0335801
747 0.105599
750 0.103722
753 0.0451128
756 0.0081557
759 0.00302501
762 0.00170562
765 0.0015316
768 0.00103033
771 0.00107472
774 0.00102703
777 0.00104755
780 0.00102841
783 0.00154418
786 0.001589
789 0.00166062
792 0.00189495
795 0.00242756
798 0.00295018
801 0.00368325
804 0.00526493
807 0.00754732
810 0.0129851
813 0.0318658
816 0.14311
819 0.485883
822 0.473286
825 0.121255
828 0.0243028
831 0.0100996
834 0.00624569
837 0.00430416
840 0.00323547
843 0.00233536
846 0.00199308
849 0.00165739
852 0.00154142
855 0.000974452
858 0.00109566
861 0.00109756
864 0.000932786
867 0.000773018
870 0.000680889
873 0.000747145
876 0.000580118
879 0.000537257
882 0.00090122
885 0.000844108
888 0.000793271
891 0.000656722
894 0.000601249
897 0.00064058
900 0.000696464
903 0.000502922
906 0.000443075
909 0.00034079
912 0.000646453
915 0.000507213
918 0.000605068
921 0.00112868
924 0.00108382
927 0.00165899
930 0.00236403
933 0.00371296
936 0.00636473
939 0.0159583
942 0.0644248
945 0.184923
948 0.338537
951 0.15787
954 0.0300096
957 0.00984199
960 0.00516624
963 0.00318569
966 0.00222454
969 0.00185457
972 0.00147394
975 0.00164087
978 0.00179125
981 0.00176508
984 0.00164332
987 0.00143408
990 0.0016644
993 0.00243942
996 0.00514477
999 0.0142643
1002 0.0519419
1005 0.0979022
1008 0.0557755
1011 0.0165718
1014 0.00453652
1017 0.00219795
1020 0.001358
1023 0.0011378
1026 0.00115501
1029 0.00120852
1032 0.00129193
1035 0.00158094
1038 0.00234919
1041 0.0032765
1044 0.0049601
1047 0.00871215
1050 0.018965
1053 0.0581436
1056 0.164898
1059 0.187814
1062 0.141702
1065 0.128288
1068 0.0313617
1071 0.0100322
1074 0.00535507
1077 0.00355716
1080 0.00259096
1083 0.00203627
1086 0.00199766
1089 0.00210417
1092 0.00214214
1095 0.00258531
1098 0.00411433
1101 0.00750245
1104 0.0192325
1107 0.0655413
1110 0.109061
1113 0.08591
1116 0.0762557
1119 0.0200511
1122 0.00554104
1125 0.0024316
1128 0.0016261
1131 0.00105458
1134 0.000809964
1137 0.00066841
1140 0.00105534
1143 0.00118697
1146 0.00154929
1149 0.00226916
1152 0.00430097
1155 0.0120115
1158 0.0624276
1161 0.150919
1164 0.0698949
1167 0.0109311
1170 0.00363323
1173 0.00177189
1176 0.00140058
1179 0.00121216
1182 0.000742876
1185 0.000756521
1188 0.000824813
1191 0.00149168
1194 0.0014578
1197 0.00256224
1200 0.00552077
1203 0.0168089
1206 0.0313478
1209 0.0405589
1212 0.0327441
1215 0.0107322
1218 0.00341371
1221 0.00270791
1224 0.00204837
1227 0.00226051
1230 0.00262602
1233 0.00331557
1236 0.00433482
1239 0.00631974
1242 0.0106367
1245 0.0225225
1248 0.0736837
1251 0.196955
1254 0.309798
1257 0.267261
1260 0.0940535
1263 0.0229086
1266 0.00984716
1269 0.00553127
1272 0.00381431
1275 0.00233844
1278 0.00166523
1281 0.00120917
1284 0.0010402
1287 0.000736798
1290 0.000543
1293 0.000481634
1296 0.000714628
1299 0.000411528
1302 0.000354415
1305 0.000607261
1308 0.000426797
1311 0.000352878
1314 0.000475327
1317 0.000363109
1320 0.00112707
1323 0.00117761
1326 0.0018431
1329 0.00367165
1332 0.00808044
1335 0.0212029
1338 0.0347104
1341 0.0242396
1344 0.0182276
1347 0.0267146
1350 0.0162742
1353 0.00469805
1356 0.00251088
1359 0.00173817
1362 0.00156457
1365 0.00188229
1368 0.00243732
1371 0.00409528
1374 0.00884246
1377 0.0247142
1380 0.0500781
1383 0.0545295
1386 0.0359454
1389 0.0226001
1392 0.00879786
1395 0.00359198
1398 0.00289138
1401 0.00290667
1404 0.00357891
1407 0.00504863
1410 0.00865321
1413 0.0186033
1416 0.0515098
1419 0.0994889
1422 0.117022
1425 0.105398
1428 0.0837771
1431 0.0410727
1434 0.0117505
1437 0.00645907
1440 0.00468911
1443 0.00326544
1446 0.00358478
1449 0.00355903
1452 0.005712
1455 0.0149944
1458 0.0290361
1461 0.0534249
1464 0.0623558
1467 0.0233297
1470 0.00711488
1473 0.00388481
1476 0.00314692
1479 0.00333656
1482 0.00387953
1485 0.00582586
1488 0.00967051
1491 0.0223597
1494 0.0546801
1497 0.093106
1500 0.0939749
1503 0.0780963
1506 0.0778327
1509 0.0261416
1512 0.00923984
1515 0.00515407
1518 0.00374453
1521 0.00343914
1524 0.00410175
1527 0.00621083
1530 0.0150005
1533 0.0301561
1536 0.0374621
1539 0.0295659
1542 0.0304503
1545 0.0137474
1548 0.00453918
1551 0.00268477
1554 0.0023744
1557 0.00221853
1560 0.00328646
1563 0.00483184
1566 0.0108453
1569 0.0343889
1572 0.0766278
1575 0.0972
1578 0.0390773
1581 0.0096374
1584 0.00420452
1587 0.00261502
1590 0.00184212
1593 0.00146724
1596 0.00157627
1599 0.00146123
1602 0.00122035
1605 0.00121166
1608 0.00102039
1611 0.00125653
1614 0.00134728
1617 0.001426
1620 0.0017014
1623 0.00207919
1626 0.0028889
1629 0.00402486
1632 0.00619755
1635 0.0137949
1638 0.0387441
1641 0.0729991
1644 0.083937
1647 0.077126
1650 0.0453947
1653 0.0130722
1656 0.00628306
1659 0.0042201
1662 0.00362979
1665 0.00403877
1668 0.00591452
1671 0.010784
1674 0.0141238
1677 0.0184672
1680 0.0187203
1683 0.0147627
1686 0.00844071
1689 0.00617362
1692 0.00585202
1695 0.0078478
1698 0.0124203
1701 0.02472
1704 0.0606681
1707 0.0970553
1710 0.127703
1713 0.127622
1716 0.0982837
1719 0.0579042
1722 0.0271283
1725 0.0112934
1728 0.00757077
1731 0.00712556
1734 0.00934525
1737 0.017545
1740 0.0286054
1743 0.031706
1746 0.0248982
1749 0.0168563
1752 0.0183186
1755 0.00833861
1758 0.00313149
1761 0.00172298
1764 0.00157666
1767 0.00103347
1770 0.000957647
1773 0.000698861
1776 0.000714976
1779 0.000592294
1782 0.000852043
1785 0.000916216
1788 0.0010504
1791 0.00184278
1794 0.00235105
1797 0.00481853
1800 0.0115256
1803 0.0239539
1806 0.0333802
1809 0.0365343
1812 0.0266384
1815 0.0151833
1818 0.00787411
1821 0.00545485
1824 0.00654892
1827 0.0111321
1830 0.0240332
1833 0.0477007
1836 0.0629394
1839 0.0512944
1842 0.039798
1845 0.0508394
1848 0.0343757
1851 0.0102251
1854 0.00434767
1857 0.00268678
1860 0.00186697
1863 0.00117212
1866 0.000860627
1869 0.000203244
1872 0.000239464
1875 0.000315459
1878 0.000161116
1881 0.000909735
1884 0.00111378
1887 0.00215725
1890 0.00596331
1893 0.00987511
1896 0.0140413
1899 0.0237909
1902 0.0293198
1905 0.0166948
1908 0.00562419
1911 0.00285333
1914 0.00234266
1917 0.00265905
1920 0.00591507
1923 0.0110564
1926 0.0142646
1929 0.0173808
1932 0.0171733
1935 0.0126868
1938 0.00701547
1941 0.00406029
1944 0.0045877
1947 0.00816351
1950 0.016849
1953 0.0324619
1956 0.0560644
1959 0.0671167
1962 0.0527543
1965 0.031134
1968 0.0130652
1971 0.00648928
1974 0.00613718
1977 0.00977913
1980 0.0171699
1983 0.023748
1986 0.0294374
1989 0.0249446
1992 0.0255486
1995 0.0177564
1998 0.00746326
2001 0.00546821
2004 0.00736305
2007 0.0148285
2010 0.026792
2013 0.0379042
2016 0.0568658
2019 0.0460508
2022 0.0207006
2025 0.0119221
2028 0.00772813
2031 0.00484938
2034 0.00514156
2037 0.00685782
2040 0.00713044
2043 0.00546712
2046 0.00453461
2049 0.0044872
2052 0.00699839
2055 0.00831734
2058 0.00958501
2061 0.0179044
2064 0.0373669
2067 0.0542983
2070 0.0599249
2073 0.0526554
2076 0.0492074
2079 0.0352724
2082 0.0210432
2085 0.00853763
2088 0.00429614
2091 0.00243712
2094 0.00194234
2097 0.00162061
2100 0.00158978
2103 0.00180081
2106 0.00196937
2109 0.00295137
2112 0.00530659
2115 0.0100221
2118 0.0174342
2121 0.0235731
2124 0.0207557
2127 0.014625
2130 0.013626
2133 0.0202127
2136 0.0189873
2139 0.00973568
2142 0.0103506
2145 0.015143
2148 0.0200886
2151 0.0227066
2154 0.0208074
2157 0.0152987
2160 0.0125965
2163 0.00935698
2166 0.00869591
2169 0.0151508
2172 0.0189102
2175 0.0279139
2178 0.0396348
2181 0.0410646
2184 0.0300333
2187 0.0122462
2190 0.00529546
2193 0.00398888
2196 0.0051058
2199 0.00916379
2202 0.0107387
2205 0.0133526
2208 0.0115208
2211 0.00707356
2214 0.00416177
2217 0.00503424
2220 0.00847868
2223 0.015288
2226 0.0200655
2229 0.018709
2232 0.0134429
2235 0.0143582
2238 0.0187161
2241 0.0117412
2244 0.00704579
2247 0.00869623
2250 0.0107623
2253 0.0139479
2256 0.0154221
2259 0.0136136
2262 0.0101425
2265 0.00764996
2268 0.00786254
2271 0.0128178
2274 0.0192632
2277 0.0255509
2280 0.0236768
2283 0.0174946
2286 0.0202759
2289 0.021323
2292 0.00939052
2295 0.00375878
2298 0.00166338
2301 0.00112352
2304 0.000936183
2307 0.000542203
2310 0.000275776
2313 0.000551405
2316 0.000558214
2319 0.0010076
2322 0.00167636
2325 0.00511823
2328 0.00889766
2331 0.0109787
2334 0.00855396
2337 0.002928
2340 0.00279916
2343 0.00358191
2346 0.0064188
2349 0.00853123
2352 0.00882617
2355 0.00828763
2358 0.00815642
2361 0.00976159
2364 0.0102031
2367 0.0128002
2370 0.0209947
2373 0.032398
2376 0.0406235
2379 0.0497443
2382 0.0436549
2385 0.0247961
2388 0.0167208
2391 0.0169693
2394 0.01399
2397 0.0127483
2400 0.0131992
2403 0.0135533
2406 0.0128001
2409 0.00933367
2412 0.00937849
2415 0.0113349
2418 0.0105941
2421 0.0126566
2424 0.0168878
2427 0.0158538
2430 0.0152731
2433 0.0156493
2436 0.0105467
2439 0.00872352
2442 0.00926737
2445 0.0100371
2448 0.0107971
2451 0.0101218
2454 0.0106552
2457 0.012249
2460 0.0147521
2463 0.0224428
2466 0.0310155
2469 0.0350197
2472 0.0364733
2475 0.0333502
2478 0.0279643
2481 0.0232761
2484 0.0187817
2487 0.00955512
2490 0.00479236
2493 0.00352488
2496 0.00312118
2499 0.00321599
2502 0.00330169
2505 0.00517236
2508 0.00955923
2511 0.0150243
2514 0.0211064
2517 0.0285576
2520 0.0272995
2523 0.0265344
2526 0.0205441
2529 0.0100288
2532 0.00664449
2535 0.00711555
2538 0.00762214
2541 0.00746756
2544 0.00655194
2547 0.00490169
2550 0.0057692
2553 0.00686085
2556 0.00774663
2559 0.00832535
2562 0.00749698
2565 0.00611366
2568 0.00568521
2571 0.00822833
2574 0.0111199
2577 0.0113206
2580 0.0124022
2583 0.0136831
2586 0.0138914
2589 0.0108675
2592 0.00854068
2595 0.00793143
2598 0.00434328
2601 0.0019726
2604 0.00154165
2607 0.000864394
2610 0.00118156
2613 0.000978312
2616 0.00158289
2619 0.00370456
2622 0.00553769
2625 0.00653574
2628 0.00847215
2631 0.0100129
2634 0.00989766
2637 0.0105379
2640 0.0135796
2643 0.0173577
2646 0.0217813
2649 0.0268073
2652 0.0264287
2655 0.0248554
2658 0.0214239
2661 0.0154746
2664 0.006808
2667 0.00275676
2670 0.0015607
2673 0.000623827
2676 0.000329103
2679 0.000715613
2682 0.000913107
2685 0.00157281
2688 0.00172952
2691 0.00102445
2694 0.00117209
2697 0.00157346
2700 0.00185036
2703 0.0036805
2706 0.00639073
2709 0.00753299
2712 0.0076363
2715 0.00865221
2718 0.00871647
2721 0.009357
2724 0.0121064
2727 0.0152278
2730 0.0197313
2733 0.0238106
2736 0.0237708
2739 0.0210857
2742 0.0163297
2745 0.0147506
2748 0.012441
2751 0.00877086
2754 0.00625923
2757 0.00448967
2760 0.00518034
2763 0.00545711
2766 0.00754719
2769 0.00983237
2772 0.0128657
2775 0.0133603
2778 0.0153425
2781 0.0148331
2784 0.0116798
2787 0.0102148
2790 0.0122016
2793 0.0099719
2796 0.00721595
2799 0.00464827
2802 0.00467298
2805 0.00507534
2808 0.00737298
2811 0.00857122
2814 0.00913725
2817 0.0125468
2820 0.0151192
2823 0.0122808
2826 0.00686488
2829 0.00186571
2832 0.000663322
2835 0.0005977
2838 0.000000000000000000e+00
2841 0.000610002
2844 0.00130808
2847 0.0033708
2850 0.00532039
2853 0.00611915
2856 0.00716597
2859 0.00745325
2862 0.00780189
2865 0.00673244
2868 0.00737141
2871 0.00805551
2874 0.00617235
2877 0.005495
2880 0.00458062
2883 0.00630864
2886 0.00900101
2889 0.0134292
2892 0.0170142
2895 0.0208257
2898 0.0203
2901 0.0183046
2904 0.0177413
2907 0.0198757
2910 0.01638
2913 0.0117332
2916 0.00940671
2919 0.0079487
2922 0.00711783
2925 0.00712523
2928 0.00629845
2931 0.00430449
2934 0.00404026
2937 0.00675026
2940 0.00917621
2943 0.00845937
2946 0.0062449
2949 0.00523294
2952 0.00550071
2955 0.00605541
2958 0.0059216
2961 0.00590968
2964 0.00548892
2967 0.00661364
2970 0.00655726
2973 0.00701377
2976 0.00816188
2979 0.00828325
2982 0.00744781
2985 0.00619313
2988 0.00313011
2991 0.00134465
2994 0.000893079
2997 0.000990932
3000 0.000240019
3003 0.0014768
3006 0.00269036
3009 0.00453163
3012 0.00464958
3015 0.00467026
3018 0.00407279
3021 0.00511957
3024 0.00692311
3027 0.00883797
3030 0.00789351
3033 0.00739351
3036 0.00697043
3039 0.00719773
3042 0.00859129
3045 0.00851324
3048 0.00854407
3051 0.00650542
3054 0.00550442
3057 0.00550181
3060 0.00722614
3063 0.00890762
3066 0.0102605
3069 0.0110719
3072 0.00885717
3075 0.00840715
3078 0.00873329
3081 0.00969893
3084 0.009905
3087 0.0105534
3090 0.0105858
3093 0.00851449
3096 0.00839727
3099 0.00949342
3102 0.01115
3105 0.00871987
3108 0.00538729
3111 0.00606077
3114 0.0089838
3117 0.0109611
3120 0.0119385
3123 0.0139291
3126 0.0166706
3129 0.01684
3132 0.0154224
3135 0.0121151
3138 0.00917088
3141 0.00741096
3144 0.00733251
3147 0.0039065
3150 0.00279768
3153 0.00430924
3156 0.00399729
3159 0.00617749
3162 0.00612354
3165 0.0094833
3168 0.00896221
3171 0.00897332
3174 0.00869122
3177 0.00795231
3180 0.00869044
3183 0.00859911
3186 0.00889749
3189 0.0115847
3192 0.0139137
3195 0.0157437
3198 0.0150602
3201 0.0147701
3204 0.0155425
3207 0.0131274
3210 0.0134326
3213 0.0103423
3216 0.00783917
3219 0.00390672
3222 0.00253598
3225 0.00244362
3228 0.0020693
3231 0.00352463
3234 0.0025593
3237 0.00154683
3240 5.91932e-05
3243 0.00185433
3246 0.000250793
3249 0.00294171
3252 0.00267789
3255 0.00190604
3258 0.0041199
3261 0.00600246
3264 0.00769165
3267 0.00717805
3270 0.00810839
3273 0.0102254
3276 0.00871299
3279 0.00700275
3282 0.00400916
3285 0.00477475
3288 0.00241311
3291 0.00033973
3294 0.000996796
3297 0.00134161
3300 0.0017459
3303 0.00205246
3306 0.00275728
3309 0.00284711
3312 0.00151367
3315 0.00381227
3318 0.0020593
3321 0.00153135
3324 0.00235246
3327 0.00261117
3330 0.00527323
3333 0.00456534
3336 0.00738981
3339 0.00920257
3342 0.00814328
3345 0.00655483
3348 0.00719761
3351 0.00702
3354 0.00715509
3357 0.00588343
3360 0.00318076
3363 0.00518383
3366 0.00378465
3369 0.00240566
3372 0.00192979
3375 0.0024977
3378 0.00096162
3381 0.00370588
3384 0.00593691
3387 0.00403706
3390 0.00429327
3393 0.00323033
3396 0.00595567
3399 0.00560373
3402 0.00395715
3405 0.00354601
3408 0.00476494
3411 0.00366318
3414 0.00374766
3417 0.00309061
3420 0.000903411
3423 0.0025754
3426 0.00230874
3429 0.00383002
3432 0.00351825
3435 0.00275268
3438 0.00599187
3441 0.00909985
3444 0.00707986
3447 0.00823149
3450 0.0119042
3453 0.0115281
3456 0.0101532
3459 0.0113679
3462 0.00812269
3465 0.0112128
3468 0.00813927
3471 0.0062291
3474 0.0137038
3477 0.00687439
3480 0.00978647
3483 0.0144448
3486 0.0153892
3487 0.00889285