File: constrainednmf/example_data/BaTiO3_xrd_ramp/BTO_155K_tth.xy
0.000000000000000000e+00 0.000624454
3 0.000700118
6 0.000884307
9 0.00253161
12 0.0100195
15 0.0116977
18 0.0112316
21 0.0106108
24 0.010959
27 0.0109466
30 0.00895467
33 0.00387989
36 0.0028581
39 0.0028531
42 0.0030123
45 0.00304051
48 0.0030364
51 0.00299619
54 0.00303919
57 0.00309733
60 0.00311763
63 0.00316443
66 0.00316083
69 0.00322294
72 0.00331318
75 0.0033578
78 0.0034473
81 0.00355557
84 0.00361938
87 0.00365103
90 0.00360653
93 0.0035775
96 0.00360412
99 0.00351099
102 0.00347108
105 0.0034778
108 0.00347426
111 0.00350279
114 0.00351854
117 0.00352231
120 0.00347869
123 0.00342773
126 0.0034717
129 0.00344065
132 0.00343188
135 0.00338787
138 0.00340315
141 0.00333322
144 0.00334237
147 0.0033416
150 0.00331442
153 0.00330603
156 0.00328942
159 0.00324692
162 0.00320092
165 0.00320905
168 0.00317079
171 0.00312706
174 0.00307642
177 0.00308672
180 0.00306338
183 0.00299907
186 0.00291825
189 0.00290135
192 0.00293352
195 0.00284983
198 0.00285359
201 0.00286263
204 0.00275974
207 0.00276291
210 0.00269958
213 0.00271684
216 0.00268772
219 0.00262558
222 0.00261998
225 0.00267157
228 0.0026035
231 0.00263092
234 0.00263747
237 0.00256077
240 0.00257059
243 0.00256003
246 0.00263864
249 0.00263046
252 0.00258909
255 0.0025854
258 0.00254839
261 0.0026508
264 0.00256927
267 0.00265714
270 0.00263539
273 0.00265097
276 0.00260271
279 0.00271651
282 0.00281413
285 0.00289417
288 0.00290154
291 0.00301596
294 0.00303228
297 0.00279858
300 0.0027091
303 0.00262043
306 0.00253076
309 0.00255657
312 0.00259859
315 0.00262042
318 0.00266095
321 0.00280394
324 0.00334559
327 0.00551663
330 0.0209878
333 0.110235
336 0.0668776
339 0.0107163
342 0.00690019
345 0.00640835
348 0.00240383
351 0.00212174
354 0.00196152
357 0.00251122
360 0.00456032
363 0.00438036
366 0.00299986
369 0.00184421
372 0.0015094
375 0.00136248
378 0.00132113
381 0.00140698
384 0.00165112
387 0.00472917
390 0.00598007
393 0.00153269
396 0.00139152
399 0.00140412
402 0.00147105
405 0.00136058
408 0.00136514
411 0.00149974
414 0.00167197
417 0.00188596
420 0.00176863
423 0.00176421
426 0.00188274
429 0.00161512
432 0.00164874
435 0.00166858
438 0.00178563
441 0.0019906
444 0.00238653
447 0.00269695
450 0.00337013
453 0.00383116
456 0.00464538
459 0.00608248
462 0.00903788
465 0.0170859
468 0.0586024
471 0.439458
474 0.938786
477 0.160664
480 0.0271196
483 0.0110975
486 0.006761
489 0.00501451
492 0.00365341
495 0.00291889
498 0.00221274
501 0.00249696
504 0.00213078
507 0.00212706
510 0.00245005
513 0.00269607
516 0.00225424
519 0.00152219
522 0.000946052
525 0.000699273
528 0.000749637
531 0.000540983
534 0.000453151
537 0.000555881
540 0.00058748
543 0.000637643
546 0.000685191
549 0.000755056
552 0.000787908
555 0.000920717
558 0.00109802
561 0.00128005
564 0.00173143
567 0.00248468
570 0.00357492
573 0.00817828
576 0.0445546
579 0.28523
582 0.195422
585 0.0210511
588 0.00596013
591 0.00340226
594 0.00278052
597 0.00228714
600 0.0014405
603 0.00126871
606 0.00114241
609 0.00118867
612 0.00110883
615 0.00121124
618 0.0012007
621 0.0015783
624 0.00228031
627 0.00245156
630 0.00226277
633 0.00213919
636 0.00222458
639 0.00237909
642 0.00216705
645 0.00310919
648 0.0095461
651 0.00420406
654 0.00488641
657 0.00721043
660 0.0127364
663 0.0292984
666 0.110147
669 0.376345
672 0.265002
675 0.0735875
678 0.0211889
681 0.00878685
684 0.00531247
687 0.00457606
690 0.00371651
693 0.00374851
696 0.00339207
699 0.0077894
702 0.00283762
705 0.00159191
708 0.00149907
711 0.00226154
714 0.00147441
717 0.00116122
720 0.000918551
723 0.00137227
726 0.00144775
729 0.0013581
732 0.00150119
735 0.00200004
738 0.00305855
741 0.00615302
744 0.019751
747 0.0863525
750 0.139
753 0.0435201
756 0.00989047
759 0.00346104
762 0.00208226
765 0.0013642
768 0.00127743
771 0.00108142
774 0.00117462
777 0.00165081
780 0.00205124
783 0.00137919
786 0.00140671
789 0.00161296
792 0.00176057
795 0.00223843
798 0.00266694
801 0.00353821
804 0.00473032
807 0.00667077
810 0.0111595
813 0.0245107
816 0.0918758
819 0.404357
822 0.580891
825 0.144345
828 0.0304387
831 0.0116974
834 0.00641838
837 0.00445412
840 0.00345606
843 0.00239642
846 0.00178603
849 0.00153428
852 0.00137881
855 0.00137809
858 0.00114067
861 0.00116431
864 0.000965676
867 0.000867517
870 0.000802717
873 0.000969585
876 0.000994063
879 0.00266084
882 0.00290712
885 0.00134865
888 0.00126042
891 0.00105188
894 0.000897101
897 0.000784698
900 0.000608741
903 0.000624107
906 0.000692585
909 0.000683359
912 0.00078571
915 0.000531944
918 0.000813092
921 0.00104745
924 0.00147411
927 0.00203564
930 0.00285153
933 0.00363458
936 0.00576627
939 0.0122877
942 0.0372824
945 0.14837
948 0.352643
951 0.200174
954 0.038564
957 0.0120541
960 0.0062305
963 0.00395342
966 0.0026833
969 0.00225969
972 0.00194973
975 0.00235214
978 0.00470431
981 0.00309224
984 0.00240971
987 0.00205601
990 0.00216299
993 0.00252238
996 0.00422159
999 0.0103633
1002 0.0375137
1005 0.097783
1008 0.0780318
1011 0.017251
1014 0.00591543
1017 0.00301333
1020 0.00207594
1023 0.00163747
1026 0.00147282
1029 0.00160692
1032 0.00159863
1035 0.00202348
1038 0.00238323
1041 0.0029146
1044 0.0045211
1047 0.00719367
1050 0.0130885
1053 0.0313404
1056 0.0957861
1059 0.249982
1062 0.229033
1065 0.0902154
1068 0.0338765
1071 0.0130437
1074 0.00656021
1077 0.004276
1080 0.00310091
1083 0.00272708
1086 0.00230122
1089 0.00272358
1092 0.00263771
1095 0.00439359
1098 0.00423195
1101 0.0060599
1104 0.0123236
1107 0.0355178
1110 0.106641
1113 0.142427
1116 0.0651327
1119 0.0215359
1122 0.00750224
1125 0.00342319
1128 0.00207513
1131 0.00144036
1134 0.00121897
1137 0.00115761
1140 0.00116666
1143 0.0012151
1146 0.00168386
1149 0.00256552
1152 0.00404299
1155 0.0107182
1158 0.0469306
1161 0.119872
1164 0.113752
1167 0.0184701
1170 0.00513662
1173 0.00242354
1176 0.00164613
1179 0.00115134
1182 0.000912069
1185 0.000726325
1188 0.000958142
1191 0.00089121
1194 0.00126238
1197 0.00214059
1200 0.0038228
1203 0.00953928
1206 0.0270115
1209 0.0510954
1212 0.0368601
1215 0.0118783
1218 0.00444667
1221 0.00282785
1224 0.00229222
1227 0.00232217
1230 0.00273549
1233 0.002995
1236 0.00377641
1239 0.00547162
1242 0.00915505
1245 0.0167905
1248 0.0439704
1251 0.141815
1254 0.324295
1257 0.337287
1260 0.111229
1263 0.0307085
1266 0.0123014
1269 0.00670179
1272 0.00438464
1275 0.0029497
1278 0.00216589
1281 0.00147572
1284 0.00126118
1287 0.00117506
1290 0.000710965
1293 0.000750996
1296 0.000672084
1299 0.000437791
1302 0.000372716
1305 0.000499821
1308 0.000754768
1311 0.000869468
1314 0.00069024
1317 0.000695425
1320 0.0011343
1323 0.0013619
1326 0.00158451
1329 0.00277245
1332 0.00456345
1335 0.0101346
1338 0.0246464
1341 0.0468902
1344 0.0384566
1347 0.0187014
1350 0.00986713
1353 0.00569176
1356 0.00355294
1359 0.00266095
1362 0.00205379
1365 0.00197788
1368 0.00243541
1371 0.00338304
1374 0.0060286
1377 0.0150227
1380 0.0408158
1383 0.0696907
1386 0.0560878
1389 0.0190416
1392 0.00845757
1395 0.00461219
1398 0.00319144
1401 0.00276491
1404 0.00316801
1407 0.00440753
1410 0.00678224
1413 0.0119152
1416 0.0260462
1419 0.0674136
1422 0.144893
1425 0.164572
1428 0.0824205
1431 0.0327992
1434 0.015091
1437 0.00795641
1440 0.00515369
1443 0.00360801
1446 0.00357008
1449 0.00357917
1452 0.0047124
1455 0.00942097
1458 0.0241585
1461 0.0515235
1464 0.0706119
1467 0.03349
1470 0.00964843
1473 0.00464291
1476 0.00354287
1479 0.00356397
1482 0.00439902
1485 0.00512176
1488 0.00766182
1491 0.0130755
1494 0.0290431
1497 0.071721
1500 0.133865
1503 0.12573
1506 0.0614262
1509 0.0268184
1512 0.012231
1515 0.00666131
1518 0.00466296
1521 0.00405541
1524 0.00402278
1527 0.00520018
1530 0.00938367
1533 0.0208637
1536 0.042445
1539 0.0514704
1542 0.0314138
1545 0.0135064
1548 0.00616082
1551 0.00356621
1554 0.00275721
1557 0.00284628
1560 0.00308067
1563 0.00439934
1566 0.00911819
1569 0.0273624
1572 0.0576667
1575 0.102309
1578 0.0676372
1581 0.015974
1584 0.00643821
1587 0.00370055
1590 0.00262182
1593 0.00227651
1596 0.00204999
1599 0.00167448
1602 0.0018842
1605 0.00156413
1608 0.00145996
1611 0.00162799
1614 0.00143613
1617 0.00160179
1620 0.00185279
1623 0.00215133
1626 0.00253396
1629 0.00345014
1632 0.00504232
1635 0.00974644
1638 0.0233345
1641 0.0567119
1644 0.0973144
1647 0.107702
1650 0.0475635
1653 0.0171548
1656 0.00800704
1659 0.00518343
1662 0.00369025
1665 0.00327048
1668 0.00465639
1671 0.00671016
1674 0.0124489
1677 0.0222484
1680 0.025429
1683 0.0166139
1686 0.00785848
1689 0.00530528
1692 0.00510127
1695 0.00618755
1698 0.00912614
1701 0.0155867
1704 0.0317127
1707 0.0713779
1710 0.141025
1713 0.185588
1716 0.13064
1719 0.0521887
1722 0.0239331
1725 0.013852
1728 0.00882938
1731 0.00670016
1734 0.00716743
1737 0.010546
1740 0.0214118
1743 0.0363906
1746 0.045073
1749 0.0270118
1752 0.0120187
1755 0.00694706
1758 0.00398784
1761 0.00252239
1764 0.00135215
1767 0.00117792
1770 0.000810717
1773 0.00107589
1776 0.000503425
1779 0.000987248
1782 0.000959507
1785 0.000756857
1788 0.00101176
1791 0.00155803
1794 0.00230686
1797 0.00330902
1800 0.00693583
1803 0.0179392
1806 0.0329986
1809 0.0462293
1812 0.0392722
1815 0.0153285
1818 0.00750539
1821 0.00544899
1824 0.00562662
1827 0.00737015
1830 0.0130942
1833 0.0266434
1836 0.0554595
1839 0.085966
1842 0.0819406
1845 0.0469993
1848 0.0242277
1851 0.0127446
1854 0.00661733
1857 0.00344111
1860 0.00226904
1863 0.00175103
1866 0.00116681
1869 0.000733121
1872 0.000404807
1875 0.000495552
1878 0.000485577
1881 0.00053549
1884 0.00049737
1887 0.00172443
1890 0.00296426
1893 0.00648583
1896 0.0140937
1899 0.0257801
1902 0.0324083
1905 0.0231812
1908 0.00820476
1911 0.00371271
1914 0.00265855
1917 0.00252937
1920 0.00383925
1923 0.00743346
1926 0.0149462
1929 0.0220605
1932 0.0239724
1935 0.014858
1938 0.00705698
1941 0.00404795
1944 0.00399997
1947 0.00580517
1950 0.0108172
1953 0.0250778
1956 0.0478621
1959 0.0718856
1962 0.0822052
1965 0.0374665
1968 0.0148238
1971 0.00804538
1974 0.00595551
1977 0.0072033
1980 0.0105235
1983 0.0206471
1986 0.034157
1989 0.0410396
1992 0.0315164
1995 0.0161435
1998 0.00830883
2001 0.00566403
2004 0.0059261
2007 0.00907868
2010 0.0193971
2013 0.0360381
2016 0.0552945
2019 0.0686118
2022 0.0332277
2025 0.0118789
2028 0.00641687
2031 0.00472874
2034 0.00376994
2037 0.00483732
2040 0.00686746
2043 0.00955471
2046 0.00945271
2049 0.00706324
2052 0.00557552
2055 0.00548588
2058 0.00677114
2061 0.0109211
2064 0.0213908
2067 0.0432239
2070 0.0697787
2073 0.0905294
2076 0.0715334
2079 0.0345407
2082 0.0166727
2085 0.00901037
2088 0.00547184
2091 0.00332586
2094 0.00253976
2097 0.00184517
2100 0.00146418
2103 0.00135584
2106 0.00172555
2109 0.00231192
2112 0.00308489
2115 0.00530458
2118 0.00930381
2121 0.0176991
2124 0.0297309
2127 0.0345402
2130 0.0272447
2133 0.0168799
2136 0.0109681
2139 0.00828957
2142 0.0081719
2145 0.0113243
2148 0.0194338
2151 0.0269621
2154 0.0321739
2157 0.0249308
2160 0.0122532
2163 0.00751576
2166 0.00687951
2169 0.00919422
2172 0.0151619
2175 0.0292374
2178 0.0430519
2181 0.0527164
2184 0.0396924
2187 0.0166782
2190 0.00717449
2193 0.00478474
2196 0.00466487
2199 0.0075417
2202 0.0101654
2205 0.0141156
2208 0.0164114
2211 0.00865379
2214 0.00447145
2217 0.00368484
2220 0.00504984
2223 0.00861041
2226 0.0163007
2229 0.0251496
2232 0.030345
2235 0.023794
2238 0.0138282
2241 0.00917768
2244 0.00704394
2247 0.00695062
2250 0.0105117
2253 0.0154426
2256 0.0191057
2259 0.0203559
2262 0.012119
2265 0.00648643
2268 0.00600307
2271 0.00766488
2274 0.0128411
2277 0.0236824
2280 0.0345444
2283 0.0380918
2286 0.0283754
2289 0.0160265
2292 0.00883261
2295 0.00503808
2298 0.0027365
2301 0.0011938
2304 0.000937196
2307 0.000621264
2310 0.000733447
2313 0.000487748
2316 0.000282283
2319 0.000827375
2322 0.00199395
2325 0.0045261
2328 0.0053395
2331 0.00969816
2334 0.0139093
2337 0.00551175
2340 0.00296242
2343 0.00308988
2346 0.00434202
2349 0.00706238
2352 0.0104907
2355 0.0129773
2358 0.0128689
2361 0.00966534
2364 0.00782477
2367 0.0087381
2370 0.0140471
2373 0.0272877
2376 0.0405456
2379 0.0560331
2382 0.07012
2385 0.0417197
2388 0.0182374
2391 0.0115835
2394 0.0102519
2397 0.0128147
2400 0.0171935
2403 0.0197142
2406 0.0192189
2409 0.0135469
2412 0.00822541
2415 0.0068939
2418 0.0077036
2421 0.0115372
2424 0.0183447
2427 0.0223944
2430 0.0230999
2433 0.0163559
2436 0.0102975
2439 0.00749075
2442 0.00824223
2445 0.0109286
2448 0.0146167
2451 0.0162324
2454 0.0146425
2457 0.0117264
2460 0.0101646
2463 0.0133684
2466 0.0219356
2469 0.0358544
2472 0.0493233
2475 0.0586938
2478 0.0486723
2481 0.0260263
2484 0.0142506
2487 0.00916405
2490 0.00620772
2493 0.00463044
2496 0.00359763
2499 0.003167
2502 0.00316637
2505 0.00384214
2508 0.00632163
2511 0.0109404
2514 0.019139
2517 0.0277733
2520 0.0386976
2523 0.040103
2526 0.0239566
2529 0.0121532
2532 0.0078536
2535 0.00724872
2538 0.00820371
2541 0.00867938
2544 0.010369
2547 0.00767347
2550 0.00449532
2553 0.00450956
2556 0.00571435
2559 0.00796141
2562 0.0116653
2565 0.0127594
2568 0.0116212
2571 0.00867872
2574 0.00698541
2577 0.00842606
2580 0.0121429
2583 0.0161509
2586 0.019691
2589 0.0211646
2592 0.0147537
2595 0.007178
2598 0.00475336
2601 0.00266992
2604 0.00205091
2607 0.0019372
2610 0.00159558
2613 0.00131518
2616 0.00172849
2619 0.00274992
2622 0.00498927
2625 0.0072347
2628 0.00985969
2631 0.0119293
2634 0.0123514
2637 0.00990038
2640 0.00904429
2643 0.0130702
2646 0.0208731
2649 0.031766
2652 0.0395721
2655 0.0420443
2658 0.0299881
2661 0.0156226
2664 0.00814867
2667 0.00430774
2670 0.00275226
2673 0.00194335
2676 0.000819556
2679 0.000879165
2682 0.0011955
2685 0.00108176
2688 0.0014662
2691 0.00239618
2694 0.00335599
2697 0.00339095
2700 0.00287068
2703 0.00328651
2706 0.00462568
2709 0.00716101
2712 0.0100163
2715 0.0125359
2718 0.0136651
2721 0.0125609
2724 0.0101834
2727 0.0109755
2730 0.0168291
2733 0.0246756
2736 0.0315678
2739 0.0393048
2742 0.031905
2745 0.0172225
2748 0.0100009
2751 0.00846761
2754 0.00753408
2757 0.00809478
2760 0.0074968
2763 0.00628316
2766 0.00521788
2769 0.00697261
2772 0.0111452
2775 0.0152844
2778 0.019922
2781 0.0258828
2784 0.0210758
2787 0.0116712
2790 0.00864861
2793 0.00928343
2796 0.0111059
2799 0.011684
2802 0.0105536
2805 0.0080337
2808 0.00693647
2811 0.00730969
2814 0.0100741
2817 0.0114752
2820 0.0162238
2823 0.020749
2826 0.0129781
2829 0.00469623
2832 0.00253259
2835 0.000490302
2838 0.000341839
2841 0.000477993
2844 0.00158981
2847 0.00204446
2850 0.00268723
2853 0.00510655
2856 0.00926599
2859 0.0130472
2862 0.0137964
2865 0.012966
2868 0.00923915
2871 0.00598771
2874 0.00601912
2877 0.00702924
2880 0.00670816
2883 0.00760798
2886 0.00817527
2889 0.00921689
2892 0.0145529
2895 0.0215796
2898 0.0287628
2901 0.0345873
2904 0.0347063
2907 0.0235042
2910 0.0154646
2913 0.0125548
2916 0.0114669
2919 0.0116488
2922 0.0117186
2925 0.0103888
2928 0.00643038
2931 0.00544648
2934 0.00572597
2937 0.00762642
2940 0.010491
2943 0.0124119
2946 0.00891063
2949 0.00711857
2952 0.00720009
2955 0.00815956
2958 0.00840921
2961 0.00992006
2964 0.00848602
2967 0.00623578
2970 0.00550227
2973 0.00783597
2976 0.00971167
2979 0.0125443
2982 0.0138939
2985 0.00986467
2988 0.00489774
2991 0.00273407
2994 0.00130241
2997 0.00142699
3000 0.000523978
3003 0.00122299
3006 0.0021245
3009 0.00366653
3012 0.00462004
3015 0.00665124
3018 0.00715808
3021 0.00830369
3024 0.0079638
3027 0.00725343
3030 0.00845991
3033 0.00853382
3036 0.0097481
3039 0.0104694
3042 0.008103
3045 0.0075042
3048 0.00767351
3051 0.00956175
3054 0.0111482
3057 0.0114247
3060 0.00971501
3063 0.00790269
3066 0.00940748
3069 0.00958586
3072 0.0107999
3075 0.0125215
3078 0.0128753
3081 0.00992656
3084 0.00772787
3087 0.0101241
3090 0.0126231
3093 0.0150626
3096 0.0149485
3099 0.0126541
3102 0.00859777
3105 0.00825845
3108 0.00835293
3111 0.00734312
3114 0.00646358
3117 0.00840302
3120 0.0107889
3123 0.015075
3126 0.0187199
3129 0.0237928
3132 0.0272461
3135 0.0233761
3138 0.013054
3141 0.00815909
3144 0.00506572
3147 0.00445601
3150 0.00285196
3153 0.00323703
3156 0.00327705
3159 0.00423397
3162 0.00615047
3165 0.00578222
3168 0.0112028
3171 0.011237
3174 0.00853118
3177 0.00905847
3180 0.00994718
3183 0.0117823
3186 0.0118147
3189 0.0136722
3192 0.0110352
3195 0.0146913
3198 0.0172222
3201 0.0190397
3204 0.0236741
3207 0.0246022
3210 0.0161451
3213 0.0105636
3216 0.00736706
3219 0.00687286
3222 0.00707627
3225 0.0052668
3228 0.00336631
3231 0.00258704
3234 0.00123885
3237 0.0020432
3240 0.000975586
3243 0.00100046
3246 0.0022568
3249 0.00155126
3252 0.00210426
3255 0.00353289
3258 0.00211161
3261 0.00579656
3264 0.00592978
3267 0.00917517
3270 0.0117702
3273 0.0133316
3276 0.0151556
3279 0.0137991
3282 0.00878309
3285 0.00311349
3288 0.00229856
3291 0.00270529
3294 0.00150754
3297 0.00121476
3300 0.00118765
3303 0.000361011
3306 0.00327158
3309 0.00232276
3312 0.00424953
3315 0.00467392
3318 0.00613893
3321 0.00264234
3324 0.00263805
3327 0.00354706
3330 0.0061079
3333 0.00649967
3336 0.00696446
3339 0.0097028
3342 0.0127714
3345 0.013918
3348 0.0143689
3351 0.0112491
3354 0.00967847
3357 0.0102339
3360 0.00923731
3363 0.00885667
3366 0.00657826
3369 0.00634424
3372 0.00356929
3375 0.00469026
3378 0.0076172
3381 0.00792147
3384 0.00571528
3387 0.00796111
3390 0.00678202
3393 0.00668999
3396 0.00949675
3399 0.00912668
3402 0.0111062
3405 0.0100001
3408 0.0055206
3411 0.00680496
3414 0.00795927
3417 0.00718156
3420 0.00637143
3423 0.0047279
3426 0.00171561
3429 0.0034261
3432 0.00422249
3435 0.00393562
3438 0.0091685
3441 0.00926298
3444 0.011829
3447 0.0137534
3450 0.0226551
3453 0.0139865
3456 0.00960154
3459 0.0105034
3462 0.0115369
3465 0.00806629
3468 0.0173292
3471 0.0152165
3474 0.0146413
3477 0.0173748
3480 0.0137156
3483 0.0261222
3486 0.0139402
3487 0.0369925