File: constrainednmf/example_data/BaTiO3_xrd_ramp/BTO_280K_tth.xy
0.000000000000000000e+00 0.00112775
3 0.00109271
6 0.00119224
9 0.00283604
12 0.0109684
15 0.0124853
18 0.0118484
21 0.01115
24 0.0114237
27 0.0113229
30 0.00913802
33 0.0036776
36 0.00258635
39 0.00255564
42 0.0026374
45 0.00267885
48 0.00259697
51 0.00268944
54 0.00266636
57 0.00271017
60 0.00275753
63 0.00279559
66 0.00279312
69 0.00287066
72 0.00294565
75 0.00297831
78 0.00310261
81 0.00326553
84 0.00334488
87 0.00337981
90 0.00336463
93 0.0033432
96 0.00334783
99 0.00331981
102 0.00328578
105 0.00327181
108 0.00335967
111 0.00334952
114 0.00335862
117 0.00338006
120 0.00339986
123 0.00340072
126 0.00349597
129 0.00344932
132 0.00347326
135 0.00342087
138 0.00347993
141 0.00348844
144 0.00345125
147 0.00343056
150 0.00348288
153 0.00342199
156 0.00343096
159 0.0034382
162 0.00343751
165 0.00344496
168 0.00344962
171 0.00337237
174 0.00339209
177 0.00342115
180 0.00337649
183 0.00333074
186 0.00333852
189 0.00332935
192 0.00336215
195 0.0032731
198 0.00332643
201 0.00328809
204 0.00325808
207 0.00328119
210 0.00326234
213 0.00323409
216 0.00325591
219 0.00323477
222 0.00317595
225 0.00317395
228 0.00324783
231 0.00327291
234 0.00317933
237 0.00322016
240 0.00319637
243 0.00321154
246 0.00323279
249 0.00324493
252 0.00320938
255 0.00331239
258 0.00329158
261 0.00330332
264 0.00328132
267 0.00338333
270 0.00333099
273 0.00343285
276 0.00349106
279 0.00351034
282 0.00365047
285 0.00356622
288 0.00364742
291 0.00364539
294 0.00358518
297 0.00346212
300 0.00333628
303 0.00327804
306 0.00313006
309 0.00310343
312 0.00309687
315 0.00303279
318 0.00315611
321 0.00329953
324 0.00403551
327 0.00685997
330 0.0308966
333 0.107462
336 0.0664817
339 0.0102023
342 0.00385641
345 0.00286471
348 0.002507
351 0.00229257
354 0.00229938
357 0.00306508
360 0.00517238
363 0.00429028
366 0.00287117
369 0.00191277
372 0.00168558
375 0.00148358
378 0.00154943
381 0.00156515
384 0.00156543
387 0.00158285
390 0.00144331
393 0.00145906
396 0.00158127
399 0.00153913
402 0.00157801
405 0.00156817
408 0.00161984
411 0.00183666
414 0.00199759
417 0.0019215
420 0.00174531
423 0.00198277
426 0.00206823
429 0.00181283
432 0.00198877
435 0.00201651
438 0.00213341
441 0.00231619
444 0.00267406
447 0.00301181
450 0.00361561
453 0.00412219
456 0.00521997
459 0.00677439
462 0.0101688
465 0.020173
468 0.0812289
471 0.610988
474 0.817483
477 0.126606
480 0.0235551
483 0.0104669
486 0.0066811
489 0.00493307
492 0.00377391
495 0.00293602
498 0.00230436
501 0.00210202
504 0.00208444
507 0.00241266
510 0.00288941
513 0.00258907
516 0.00214689
519 0.00146279
522 0.000881398
525 0.000874282
528 0.0007387
531 0.000501639
534 0.000690029
537 0.000713814
540 0.000649577
543 0.000626026
546 0.000734291
549 0.000825162
552 0.000835169
555 0.000931652
558 0.0011762
561 0.0015791
564 0.00203923
567 0.00250703
570 0.00423918
573 0.00986726
576 0.0593024
579 0.360769
582 0.128756
585 0.0148595
588 0.0051951
591 0.00305324
594 0.00219592
597 0.00180814
600 0.00144414
603 0.00114673
606 0.001154
609 0.00111802
612 0.00111379
615 0.00105122
618 0.00104028
621 0.00152568
624 0.00266777
627 0.00232744
630 0.00197173
633 0.00194479
636 0.00198182
639 0.00186467
642 0.00193523
645 0.00231029
648 0.00278019
651 0.00393088
654 0.00524193
657 0.00873107
660 0.0175692
663 0.0562503
666 0.194893
669 0.277192
672 0.271082
675 0.0748538
678 0.0166951
681 0.00773014
684 0.00496564
687 0.00392074
690 0.0039355
693 0.00351105
696 0.00266
699 0.00202827
702 0.00153994
705 0.00135563
708 0.00143052
711 0.00103243
714 0.00112408
717 0.0012631
720 0.00136649
723 0.00156081
726 0.00169458
729 0.00174942
732 0.0021801
735 0.00259715
738 0.00408223
741 0.00952544
744 0.0381121
747 0.101791
750 0.11161
753 0.0411415
756 0.00806004
759 0.00333169
762 0.00236706
765 0.00189501
768 0.00166329
771 0.00157536
774 0.00160851
777 0.001736
780 0.00175971
783 0.00191542
786 0.00192372
789 0.00218443
792 0.00249918
795 0.00303083
798 0.00348527
801 0.0045131
804 0.00584677
807 0.00837371
810 0.0142486
813 0.0353627
816 0.158744
819 0.483889
822 0.488108
825 0.106048
828 0.0230027
831 0.0101905
834 0.00660788
837 0.00470963
840 0.00353246
843 0.00290722
846 0.00243788
849 0.00194471
852 0.00190424
855 0.00169751
858 0.0015407
861 0.00169528
864 0.0014214
867 0.00104155
870 0.000954441
873 0.00111758
876 0.00101013
879 0.00142476
882 0.00119351
885 0.00125107
888 0.00124763
891 0.00104926
894 0.00105848
897 0.00100611
900 0.000915704
903 0.000834098
906 0.000932178
909 0.000830331
912 0.00102213
915 0.0010789
918 0.00115513
921 0.00141272
924 0.00176944
927 0.00208607
930 0.00289399
933 0.00402608
936 0.0071157
939 0.016455
942 0.0640352
945 0.213658
948 0.326137
951 0.147096
954 0.0293885
957 0.00973364
960 0.00492257
963 0.00346211
966 0.00252907
969 0.00191482
972 0.00190813
975 0.00195104
978 0.00213056
981 0.00159684
984 0.00157815
987 0.00166246
990 0.0018903
993 0.00291413
996 0.00556667
999 0.0156427
1002 0.0533248
1005 0.0996908
1008 0.0538295
1011 0.0149323
1014 0.00450829
1017 0.00240829
1020 0.00180591
1023 0.00130891
1026 0.00136568
1029 0.00130028
1032 0.00168946
1035 0.00183957
1038 0.00244663
1041 0.00351765
1044 0.0054876
1047 0.00966443
1050 0.0233256
1053 0.0713842
1056 0.152604
1059 0.170727
1062 0.178031
1065 0.113313
1068 0.0254719
1071 0.00947016
1074 0.00502235
1077 0.00369045
1080 0.00268453
1083 0.00231425
1086 0.00206258
1089 0.00208338
1092 0.00222972
1095 0.00308231
1098 0.00444588
1101 0.0084275
1104 0.0236505
1107 0.0675451
1110 0.0973533
1113 0.0993181
1116 0.0726371
1119 0.0159893
1122 0.0049385
1125 0.00257201
1128 0.00134655
1131 0.00129891
1134 0.00082184
1137 0.00086876
1140 0.00101273
1143 0.00117116
1146 0.00159092
1149 0.00235212
1152 0.0043907
1155 0.0128495
1158 0.0666053
1161 0.160208
1164 0.0587555
1167 0.00977987
1170 0.00348332
1173 0.0020784
1176 0.00143231
1179 0.000910428
1182 0.000919468
1185 0.000960514
1188 0.000819066
1191 0.00114981
1194 0.00167039
1197 0.00275172
1200 0.0058715
1203 0.0178903
1206 0.0326496
1209 0.0404542
1212 0.0313553
1215 0.009934
1218 0.0038674
1221 0.00268554
1224 0.00218675
1227 0.00233246
1230 0.0030216
1233 0.00341416
1236 0.004563
1239 0.00684868
1242 0.0113023
1245 0.0238289
1248 0.0795081
1251 0.209336
1254 0.307048
1257 0.263438
1260 0.0806535
1263 0.0206981
1266 0.00930386
1269 0.00572652
1272 0.00360894
1275 0.00262353
1278 0.0021434
1281 0.00149383
1284 0.00139939
1287 0.000994082
1290 0.000862708
1293 0.000637904
1296 0.000668395
1299 0.000663001
1302 0.000628334
1305 0.000695463
1308 0.000706335
1311 0.000595599
1314 0.000881017
1317 0.000927157
1320 0.00117751
1323 0.00148039
1326 0.00232305
1329 0.00494304
1332 0.0111998
1335 0.02063
1338 0.0274678
1341 0.023766
1344 0.0239063
1347 0.0316148
1350 0.0115095
1353 0.00386585
1356 0.00268719
1359 0.00185458
1362 0.00189114
1365 0.0021117
1368 0.00297372
1371 0.00526428
1374 0.0114473
1377 0.0246405
1380 0.0463882
1383 0.0557217
1386 0.0386564
1389 0.0216699
1392 0.00719542
1395 0.00404084
1398 0.00324102
1401 0.0035224
1404 0.00406423
1407 0.0059591
1410 0.0100412
1413 0.0232506
1416 0.055467
1419 0.0938971
1422 0.113507
1425 0.1082
1428 0.0921289
1431 0.0314449
1434 0.0107295
1437 0.00615203
1440 0.0046369
1443 0.00355993
1446 0.00359887
1449 0.00396713
1452 0.00612729
1455 0.0149307
1458 0.0341696
1461 0.0592236
1464 0.0549778
1467 0.0223107
1470 0.00755312
1473 0.00433715
1476 0.00384879
1479 0.00388209
1482 0.00460915
1485 0.00670766
1488 0.0114747
1491 0.0274387
1494 0.058898
1497 0.0852334
1500 0.0883457
1503 0.095192
1506 0.0712144
1509 0.0211122
1512 0.00880025
1515 0.00549805
1518 0.00437705
1521 0.00407642
1524 0.00478771
1527 0.00798377
1530 0.017542
1533 0.0295706
1536 0.0339386
1539 0.034111
1542 0.0316697
1545 0.0113051
1548 0.00466518
1551 0.00318585
1554 0.00257134
1557 0.00302874
1560 0.00368652
1563 0.00543893
1566 0.0112542
1569 0.0364579
1572 0.0863531
1575 0.0931052
1578 0.0335835
1581 0.00913751
1584 0.00449805
1587 0.00363739
1590 0.00285945
1593 0.00216076
1596 0.00177652
1599 0.00184866
1602 0.00230305
1605 0.00234968
1608 0.00218427
1611 0.00178317
1614 0.00216881
1617 0.00214237
1620 0.00239563
1623 0.00275046
1626 0.00344543
1629 0.00468479
1632 0.00745678
1635 0.0163424
1638 0.0434302
1641 0.0709953
1644 0.08295
1647 0.0862275
1650 0.0368243
1653 0.0111761
1656 0.00613592
1659 0.00471202
1662 0.00456024
1665 0.0048916
1668 0.00679657
1671 0.0114981
1674 0.0154647
1677 0.0188406
1680 0.0189061
1683 0.0148356
1686 0.00901416
1689 0.00649685
1692 0.00641387
1695 0.00906076
1698 0.0152712
1701 0.0290282
1704 0.0610259
1707 0.0964997
1710 0.125
1713 0.12739
1716 0.100558
1719 0.0567956
1722 0.021251
1725 0.0107525
1728 0.00809205
1731 0.00868222
1734 0.0119477
1737 0.0173287
1740 0.0246546
1743 0.0308924
1746 0.0266433
1749 0.0217807
1752 0.0174029
1755 0.0063459
1758 0.00318243
1761 0.00213839
1764 0.00177174
1767 0.00147302
1770 0.00130531
1773 0.00111716
1776 0.00115081
1779 0.00114748
1782 0.0013144
1785 0.00152593
1788 0.00135952
1791 0.00212526
1794 0.00330287
1797 0.00602044
1800 0.0122185
1803 0.0239883
1806 0.0333024
1809 0.0364584
1812 0.0267474
1815 0.0143616
1818 0.00671972
1821 0.0055969
1824 0.00746337
1827 0.014408
1830 0.0286571
1833 0.0443454
1836 0.052234
1839 0.0481237
1842 0.0506761
1845 0.0572093
1848 0.0245372
1851 0.00806959
1854 0.00409239
1857 0.00243799
1860 0.00176409
1863 0.00120996
1866 0.000995119
1869 0.00053403
1872 0.000820372
1875 0.000555147
1878 0.000482228
1881 0.00103113
1884 0.00108008
1887 0.0020349
1890 0.00541684
1893 0.0110556
1896 0.0175136
1899 0.0253153
1902 0.0241583
1905 0.0147995
1908 0.0059494
1911 0.00290744
1914 0.00222916
1917 0.00289037
1920 0.0059794
1923 0.0106256
1926 0.0146623
1929 0.0171849
1932 0.016635
1935 0.0120378
1938 0.0057966
1941 0.00375672
1944 0.00459566
1947 0.00861056
1950 0.0180558
1953 0.0336085
1956 0.055135
1959 0.0670682
1962 0.0510929
1965 0.0264241
1968 0.0103826
1971 0.00617483
1974 0.00590948
1977 0.0101498
1980 0.0171032
1983 0.0228298
1986 0.0260385
1989 0.0264298
1992 0.0265919
1995 0.014256
1998 0.00631156
2001 0.0056683
2004 0.00732971
2007 0.0137005
2010 0.0263589
2013 0.0425395
2016 0.0547658
2019 0.0402619
2022 0.0201305
2025 0.0116692
2028 0.00615137
2031 0.00422586
2034 0.00484176
2037 0.00502666
2040 0.00545306
2043 0.00453741
2046 0.00439208
2049 0.00583407
2052 0.00784146
2055 0.00773189
2058 0.0102033
2061 0.0195951
2064 0.0362405
2067 0.048855
2070 0.0539044
2073 0.0555245
2076 0.0522973
2079 0.0334513
2082 0.0148151
2085 0.00576709
2088 0.00296374
2091 0.00199183
2094 0.00143121
2097 0.00128447
2100 0.0013014
2103 0.000988378
2106 0.0018196
2109 0.00337763
2112 0.00652489
2115 0.010578
2118 0.0154393
2121 0.0180254
2124 0.0171762
2127 0.0152732
2130 0.0181572
2133 0.023784
2136 0.0141821
2139 0.00811464
2142 0.00966201
2145 0.0136258
2148 0.0179869
2151 0.0217544
2154 0.019917
2157 0.0156445
2160 0.0126337
2163 0.00714412
2166 0.0075297
2169 0.0142357
2172 0.0213873
2175 0.0302341
2178 0.038496
2181 0.0364546
2184 0.0256115
2187 0.0112612
2190 0.00478916
2193 0.00367919
2196 0.00493591
2199 0.00862589
2202 0.0102567
2205 0.0124425
2208 0.0113086
2211 0.0057742
2214 0.0038517
2217 0.005453
2220 0.00955909
2223 0.0139229
2226 0.0164069
2229 0.0153324
2232 0.0146795
2235 0.01929
2238 0.0182419
2241 0.00800849
2244 0.00605509
2247 0.00853408
2250 0.0109233
2253 0.013396
2256 0.0148442
2259 0.0133397
2262 0.00970777
2265 0.00704812
2268 0.00868382
2271 0.0137817
2274 0.0181366
2277 0.0210726
2280 0.0206874
2283 0.0205482
2286 0.0246266
2289 0.017921
2292 0.0064649
2295 0.00252237
2298 0.00172524
2301 0.000844395
2304 0.000869598
2307 0.000676529
2310 0.00049351
2313 0.000481792
2316 0.000479388
2319 0.00122534
2322 0.00221222
2325 0.00492948
2328 0.00988044
2331 0.0117881
2334 0.00682475
2337 0.00285769
2340 0.0027517
2343 0.0040504
2346 0.00669604
2349 0.00773605
2352 0.00809924
2355 0.00852042
2358 0.00999193
2361 0.011193
2364 0.010378
2367 0.0129226
2370 0.0201296
2373 0.0312744
2376 0.0422375
2379 0.0494111
2382 0.0405905
2385 0.0241362
2388 0.0185466
2391 0.0144636
2394 0.0119977
2397 0.0118197
2400 0.0134837
2403 0.0134808
2406 0.0122022
2409 0.0105931
2412 0.01131
2415 0.0107614
2418 0.0113391
2421 0.0134657
2424 0.0155304
2427 0.0165165
2430 0.0169663
2433 0.0151564
2436 0.0101906
2439 0.00894656
2442 0.00933571
2445 0.0103362
2448 0.0107228
2451 0.0115101
2454 0.0125319
2457 0.0142772
2460 0.0164212
2463 0.0218762
2466 0.0280822
2469 0.0328706
2472 0.0352763
2475 0.0337451
2478 0.0313562
2481 0.0259853
2484 0.0154538
2487 0.00724353
2490 0.00534325
2493 0.00452787
2496 0.00389958
2499 0.00378698
2502 0.00439697
2505 0.00569609
2508 0.0110146
2511 0.0168111
2514 0.0216508
2517 0.0265345
2520 0.0282915
2523 0.0280116
2526 0.0188395
2529 0.00936381
2532 0.00651873
2535 0.00695211
2538 0.00841821
2541 0.00831682
2544 0.0074973
2547 0.0066997
2550 0.00727941
2553 0.00702765
2556 0.00727236
2559 0.00759218
2562 0.0068798
2565 0.00666166
2568 0.00755797
2571 0.0113152
2574 0.0110382
2577 0.0102375
2580 0.0120992
2583 0.0137978
2586 0.0135519
2589 0.0118014
2592 0.0102182
2595 0.0082166
2598 0.00396866
2601 0.00252635
2604 0.00234078
2607 0.0016218
2610 0.00153375
2613 0.00201429
2616 0.00234876
2619 0.00450696
2622 0.00612159
2625 0.00776269
2628 0.00887237
2631 0.0102879
2634 0.0103657
2637 0.0106326
2640 0.0134774
2643 0.0176784
2646 0.0218381
2649 0.0253561
2652 0.0252056
2655 0.0244558
2658 0.0226564
2661 0.0132876
2664 0.00463579
2667 0.0027483
2670 0.00157528
2673 0.00122804
2676 0.00138667
2679 0.000865489
2682 0.00136271
2685 0.00185417
2688 0.00189083
2691 0.00202284
2694 0.00137535
2697 0.00239016
2700 0.00306479
2703 0.0054273
2706 0.00670785
2709 0.00703017
2712 0.00799823
2715 0.00886464
2718 0.00989598
2721 0.0102797
2724 0.0126067
2727 0.0139554
2730 0.0184981
2733 0.0213375
2736 0.022941
2739 0.0208398
2742 0.0180703
2745 0.015126
2748 0.0109022
2751 0.00717293
2754 0.00539003
2757 0.00491819
2760 0.00498973
2763 0.00686637
2766 0.00736546
2769 0.00878257
2772 0.0118219
2775 0.0131139
2778 0.0156606
2781 0.0150309
2784 0.012319
2787 0.0113485
2790 0.010496
2793 0.00755159
2796 0.0058616
2799 0.00500772
2802 0.00517925
2805 0.00616606
2808 0.00707058
2811 0.00850556
2814 0.00926398
2817 0.0127936
2820 0.0139827
2823 0.0105009
2826 0.00560014
2829 0.0020166
2832 0.00123584
2835 0.000712562
2838 0.000511761
2841 0.000428633
2844 0.00195542
2847 0.00265833
2850 0.00468932
2853 0.0053485
2856 0.00744313
2859 0.00654206
2862 0.00666792
2865 0.00720833
2868 0.00821715
2871 0.00712633
2874 0.00491818
2877 0.0043679
2880 0.00502707
2883 0.00670844
2886 0.00886075
2889 0.0138434
2892 0.017157
2895 0.0173084
2898 0.0181397
2901 0.0181112
2904 0.0199032
2907 0.0191553
2910 0.0146423
2913 0.00925303
2916 0.00753767
2919 0.0073911
2922 0.00675476
2925 0.00615103
2928 0.00566637
2931 0.00506885
2934 0.00582264
2937 0.00748148
2940 0.00821612
2943 0.00718489
2946 0.00615691
2949 0.00488724
2952 0.00574776
2955 0.00570022
2958 0.0063348
2961 0.00555769
2964 0.00578987
2967 0.00656975
2970 0.00654049
2973 0.00694366
2976 0.0083109
2979 0.00783838
2982 0.00808537
2985 0.00569672
2988 0.00442905
2991 0.00102954
2994 0.00110448
2997 0.00149421
3000 0.00181766
3003 0.00246388
3006 0.00320813
3009 0.00412884
3012 0.00404038
3015 0.00569287
3018 0.00507296
3021 0.00609469
3024 0.00860246
3027 0.00762598
3030 0.00777973
3033 0.00749832
3036 0.00734425
3039 0.00740136
3042 0.00814779
3045 0.00826507
3048 0.00771087
3051 0.00711945
3054 0.00618184
3057 0.00690643
3060 0.00889056
3063 0.0101732
3066 0.0106767
3069 0.00955177
3072 0.0100278
3075 0.01011
3078 0.0104227
3081 0.00974163
3084 0.0110736
3087 0.0105758
3090 0.00913456
3093 0.010428
3096 0.0103766
3099 0.0125693
3102 0.0102735
3105 0.00792855
3108 0.0079541
3111 0.0071714
3114 0.00962893
3117 0.0101776
3120 0.0131894
3123 0.015358
3126 0.0175381
3129 0.0168009
3132 0.0153489
3135 0.0117533
3138 0.0108062
3141 0.00870728
3144 0.00684615
3147 0.00503373
3150 0.00399398
3153 0.00430235
3156 0.00501174
3159 0.00526455
3162 0.00967444
3165 0.0100251
3168 0.0101357
3171 0.00985306
3174 0.0079531
3177 0.0090747
3180 0.00837157
3183 0.00892574
3186 0.0112222
3189 0.012674
3192 0.0144943
3195 0.0149461
3198 0.0141523
3201 0.0152473
3204 0.0156061
3207 0.0146851
3210 0.0123873
3213 0.00960832
3216 0.0066266
3219 0.00451383
3222 0.00392131
3225 0.00380333
3228 0.00381747
3231 0.0038668
3234 0.00273473
3237 0.00203417
3240 0.000875765
3243 0.00302835
3246 0.00315068
3249 0.00492823
3252 0.00336914
3255 0.00296647
3258 0.00455859
3261 0.0058569
3264 0.00820425
3267 0.00664456
3270 0.00840804
3273 0.00928316
3276 0.0069402
3279 0.00667104
3282 0.00688855
3285 0.00391942
3288 0.00193424
3291 0.000534256
3294 0.000889272
3297 0.000660041
3300 0.00214753
3303 0.0021902
3306 0.00276095
3309 0.00351075
3312 0.00309148
3315 0.00252514
3318 0.00250302
3321 0.00203542
3324 0.00324018
3327 0.00287038
3330 0.00320424
3333 0.00435504
3336 0.00748118
3339 0.00648149
3342 0.00519186
3345 0.00688954
3348 0.00816105
3351 0.00909728
3354 0.00770823
3357 0.00550435
3360 0.00358248
3363 0.00691106
3366 0.00190911
3369 0.00356821
3372 0.00492082
3375 0.0033269
3378 0.00338207
3381 0.00234735
3384 0.0062714
3387 0.00524831
3390 0.00427848
3393 0.00669828
3396 0.00601192
3399 0.00719759
3402 0.00530866
3405 0.00372401
3408 0.00619488
3411 0.00362861
3414 0.00615046
3417 0.00391652
3420 0.00280941
3423 0.0047884
3426 0.0045723
3429 0.0067769
3432 0.00812267
3435 0.00548935
3438 0.00984126
3441 0.0121155
3444 0.0138187
3447 0.0135578
3450 0.0159051
3453 0.0162711
3456 0.0181895
3459 0.0181597
3462 0.0176432
3465 0.0173926
3468 0.0174298
3471 0.018153
3474 0.0131038
3477 0.0196526
3480 0.018834
3483 0.0250622
3486 0.0295036
3487 0.000251312