File: constrainednmf/example_data/BaTiO3_xrd_ramp/BTO_240K_tth.xy
0.000000000000000000e+00 5.42018e-05
3 0.000136948
6 0.000334845
9 0.0020763
12 0.00993058
15 0.0114912
18 0.0109142
21 0.0103437
24 0.0107224
27 0.0106485
30 0.00871792
33 0.00348406
36 0.00242561
39 0.00246913
42 0.00259767
45 0.00262571
48 0.00258085
51 0.00260931
54 0.0026678
57 0.00266435
60 0.00276226
63 0.00276321
66 0.00279636
69 0.00285121
72 0.00287748
75 0.00296502
78 0.00304275
81 0.0031822
84 0.00324016
87 0.00327282
90 0.00319503
93 0.00322043
96 0.00311585
99 0.00308025
102 0.00308018
105 0.0030733
108 0.00311602
111 0.00305133
114 0.00301882
117 0.00303455
120 0.00301597
123 0.00298924
126 0.00290998
129 0.00300528
132 0.00298114
135 0.00295298
138 0.00288727
141 0.00284991
144 0.00286348
147 0.00284363
150 0.00280676
153 0.00279208
156 0.00276705
159 0.00279033
162 0.00272841
165 0.00266886
168 0.00266119
171 0.00263025
174 0.00265318
177 0.00254153
180 0.00253433
183 0.00253189
186 0.002461
189 0.00242608
192 0.00236364
195 0.00234655
198 0.00237491
201 0.00232671
204 0.00224638
207 0.00219252
210 0.00228367
213 0.00222023
216 0.00219415
219 0.00215844
222 0.00213096
225 0.00210996
228 0.00217922
231 0.00217028
234 0.00214517
237 0.00213669
240 0.00218253
243 0.00213643
246 0.0021335
249 0.00217397
252 0.00217671
255 0.00218562
258 0.00220419
261 0.00225343
264 0.0022905
267 0.00229209
270 0.00229831
273 0.00230291
276 0.00236681
279 0.00243944
282 0.00255797
285 0.00255786
288 0.00267332
291 0.00263033
294 0.00269823
297 0.00252781
300 0.00239812
303 0.00212378
306 0.00211352
309 0.00205951
312 0.00210123
315 0.00219121
318 0.00218829
321 0.00240051
324 0.00302998
327 0.00563515
330 0.0271738
333 0.108809
336 0.0659942
339 0.0102284
342 0.00349662
345 0.00209234
348 0.00180041
351 0.00162198
354 0.00157906
357 0.00227551
360 0.00430587
363 0.00372677
366 0.00215222
369 0.00130986
372 0.000991613
375 0.000852371
378 0.000855695
381 0.000876266
384 0.000936864
387 0.00102365
390 0.000939593
393 0.000904792
396 0.00094887
399 0.000956371
402 0.00103755
405 0.000972078
408 0.00101367
411 0.00120436
414 0.0012751
417 0.00149842
420 0.00122665
423 0.00140792
426 0.00145156
429 0.00124048
432 0.00135407
435 0.00136948
438 0.00154655
441 0.00184807
444 0.00219403
447 0.00246288
450 0.00301245
453 0.00358776
456 0.00461433
459 0.00627955
462 0.00942404
465 0.0192619
468 0.077605
471 0.557024
474 0.8636
477 0.134291
480 0.0239398
483 0.0102067
486 0.0065283
489 0.0046483
492 0.00325135
495 0.00256317
498 0.00184455
501 0.00180359
504 0.00172664
507 0.00199854
510 0.00249674
513 0.00223101
516 0.00171299
519 0.00103791
522 0.00047161
525 0.000347447
528 0.000248455
531 0.000242254
534 0.000263794
537 3.92189e-05
540 0.000212437
543 0.000281204
546 0.000161696
549 0.00034324
552 0.000471803
555 0.000580594
558 0.000798089
561 0.00116476
564 0.0015743
567 0.0022427
570 0.00356779
573 0.00893033
576 0.0546924
579 0.341839
582 0.144858
585 0.0160716
588 0.00515813
591 0.00296156
594 0.00228069
597 0.00154466
600 0.00125427
603 0.000929633
606 0.000903139
609 0.000750125
612 0.000716119
615 0.00069367
618 0.000687491
621 0.00109305
624 0.0020985
627 0.00187828
630 0.00163046
633 0.00147267
636 0.00169809
639 0.00153886
642 0.00166904
645 0.00174977
648 0.00219614
651 0.00322338
654 0.00463782
657 0.00766555
660 0.0151256
663 0.0440156
666 0.194089
669 0.299995
672 0.228498
675 0.094858
678 0.0187128
681 0.00743404
684 0.0044477
687 0.00335347
690 0.00316611
693 0.00291161
696 0.00191085
699 0.00135289
702 0.00103324
705 0.000967179
708 0.000925134
711 0.00202446
714 0.000603526
717 0.000796985
720 0.000846628
723 0.00094322
726 0.000885594
729 0.000910224
732 0.00116358
735 0.00164587
738 0.00302159
741 0.00775781
744 0.0327516
747 0.105417
750 0.102758
753 0.0464088
756 0.0082606
759 0.00272885
762 0.0014119
765 0.00110856
768 0.000612402
771 0.000766903
774 0.000632154
777 0.000625099
780 0.000805624
783 0.000657205
786 0.00104577
789 0.00143513
792 0.00181883
795 0.00196939
798 0.00259659
801 0.00339438
804 0.00466753
807 0.00705309
810 0.0124627
813 0.031244
816 0.140657
819 0.48466
822 0.474525
825 0.127693
828 0.0248803
831 0.00982636
834 0.00593923
837 0.00403646
840 0.00272304
843 0.00197544
846 0.00151925
849 0.00106632
852 0.000867784
855 0.000648869
858 0.000687934
861 0.00066682
864 0.000625769
867 0.000347867
870 0.000307022
873 0.000235657
876 0.000110105
879 5.93387e-05
882 0.000395533
885 0.000530899
888 0.000589759
891 0.000280388
894 0.000321261
897 0.000243577
900 9.99753e-05
903 0.000193766
906 0.000130223
909 0.000158612
912 0.000176843
915 0.000275169
918 0.000385418
921 0.000711826
924 0.000839446
927 0.00137972
930 0.00220248
933 0.00344721
936 0.00647764
939 0.0156268
942 0.0641606
945 0.180036
948 0.339268
951 0.164437
954 0.0304556
957 0.00986723
960 0.00499743
963 0.00315782
966 0.00183838
969 0.00163949
972 0.00129739
975 0.00132016
978 0.00161716
981 0.00153105
984 0.00132381
987 0.00126547
990 0.00135613
993 0.00227644
996 0.00465163
999 0.0142398
1002 0.0513074
1005 0.0968935
1008 0.0573177
1011 0.0170263
1014 0.00473128
1017 0.00181361
1020 0.00117693
1023 0.000980387
1026 0.000878705
1029 0.000935291
1032 0.00123937
1035 0.00159338
1038 0.00229274
1041 0.0030892
1044 0.00474025
1047 0.00830034
1050 0.0182267
1053 0.0561215
1056 0.165803
1059 0.192173
1062 0.137627
1065 0.131664
1068 0.0339231
1071 0.010368
1074 0.00539962
1077 0.00355386
1080 0.00255646
1083 0.00207685
1086 0.00184436
1089 0.00182481
1092 0.00184378
1095 0.00261143
1098 0.00379794
1101 0.00685916
1104 0.0182583
1107 0.0648698
1110 0.111195
1113 0.0851123
1116 0.0769207
1119 0.0217623
1122 0.00576706
1125 0.00246758
1128 0.00156522
1131 0.00103607
1134 0.000712098
1137 0.000805442
1140 0.000724633
1143 0.00104154
1146 0.00159106
1149 0.00211878
1152 0.00400225
1155 0.0119704
1158 0.060695
1161 0.149582
1164 0.0742043
1167 0.0116624
1170 0.00378984
1173 0.00185675
1176 0.00126286
1179 0.000565624
1182 0.000661215
1185 0.000648465
1188 0.000632812
1191 0.00072267
1194 0.0014956
1197 0.00234378
1200 0.00543992
1203 0.0161524
1206 0.031146
1209 0.0407791
1212 0.033415
1215 0.0109891
1218 0.00348495
1221 0.00253665
1224 0.00215711
1227 0.00226506
1230 0.00275461
1233 0.00324929
1236 0.0041065
1239 0.00640818
1242 0.0102104
1245 0.0223721
1248 0.0730755
1251 0.194028
1254 0.311038
1257 0.269387
1260 0.100312
1263 0.0239055
1266 0.010194
1269 0.00576333
1272 0.00359862
1275 0.00240211
1278 0.00155339
1281 0.00094009
1284 0.000715705
1287 0.000429571
1290 0.00057884
1293 0.000502805
1296 0.000140492
1299 0.000326171
1302 2.82075e-05
1305 0.000298331
1308 0.00016663
1311 0.000635619
1314 0.000304382
1317 0.000585949
1320 0.000801623
1323 0.00111116
1326 0.0016255
1329 0.00343937
1332 0.00777899
1335 0.0208196
1338 0.0354837
1341 0.0250755
1344 0.017677
1347 0.0248033
1350 0.0175811
1353 0.00474312
1356 0.00243312
1359 0.00151239
1362 0.0014206
1365 0.00160671
1368 0.00230606
1371 0.00367948
1374 0.00836558
1377 0.0246602
1380 0.0502574
1383 0.054555
1386 0.0363876
1389 0.0225991
1392 0.00939456
1395 0.00353424
1398 0.00270063
1401 0.00277552
1404 0.00347246
1407 0.00501746
1410 0.00846462
1413 0.0178478
1416 0.0507433
1419 0.100092
1422 0.118207
1425 0.106311
1428 0.0821441
1431 0.0446105
1434 0.0125511
1437 0.0058102
1440 0.00404261
1443 0.00326508
1446 0.00307245
1449 0.00323061
1452 0.00563987
1455 0.0147683
1458 0.0287061
1461 0.0524024
1464 0.0634683
1467 0.0246419
1470 0.00711357
1473 0.00369209
1476 0.00315714
1479 0.00319017
1482 0.00371988
1485 0.0054819
1488 0.00953093
1491 0.0212638
1494 0.0536331
1497 0.0934265
1500 0.096047
1503 0.0758009
1506 0.0796246
1509 0.0281952
1512 0.00930138
1515 0.00506089
1518 0.0037295
1521 0.00322727
1524 0.00387094
1527 0.00587124
1530 0.0143263
1533 0.029847
1536 0.0383461
1539 0.0297223
1542 0.0296863
1545 0.0147926
1548 0.00455967
1551 0.00268157
1554 0.00204987
1557 0.00218827
1560 0.0025332
1563 0.00436001
1566 0.0101951
1569 0.0337121
1572 0.0744287
1575 0.0985322
1578 0.0418418
1581 0.00978554
1584 0.00432561
1587 0.00246078
1590 0.00185337
1593 0.0015332
1596 0.00116854
1599 0.00111159
1602 0.000889756
1605 0.0011489
1608 0.000838454
1611 0.000981394
1614 0.00101017
1617 0.00128894
1620 0.00111045
1623 0.00163237
1626 0.00241191
1629 0.00329544
1632 0.00576244
1635 0.0127642
1638 0.0379193
1641 0.0730273
1644 0.0849976
1647 0.076112
1650 0.0482628
1653 0.0139682
1656 0.00598506
1659 0.00362849
1662 0.00362358
1665 0.00350128
1668 0.00581827
1671 0.0102768
1674 0.013613
1677 0.0183619
1680 0.0183386
1683 0.0145722
1686 0.00827405
1689 0.00579783
1692 0.00559151
1695 0.00739673
1698 0.0113427
1701 0.0242787
1704 0.0600657
1707 0.0972456
1710 0.128444
1713 0.127977
1716 0.100111
1719 0.0580356
1722 0.029447
1725 0.0116817
1728 0.00729808
1731 0.00708948
1734 0.00899892
1737 0.0168815
1740 0.0288227
1743 0.0316689
1746 0.0253208
1749 0.0163615
1752 0.0181903
1755 0.00902148
1758 0.00314332
1761 0.00151205
1764 0.00106072
1767 0.000759199
1770 0.000575827
1773 0.00031207
1776 0.00016306
1779 0.000419051
1782 0.000335282
1785 0.000717908
1788 0.00108623
1791 0.00109931
1794 0.00222354
1797 0.00456569
1800 0.011068
1803 0.0239208
1806 0.0334207
1809 0.0364561
1812 0.0263247
1815 0.015386
1818 0.00812124
1821 0.00487888
1824 0.00634584
1827 0.010756
1830 0.0236177
1833 0.0476084
1836 0.0644058
1839 0.0525807
1842 0.0388715
1845 0.0489061
1848 0.0370162
1851 0.0112928
1854 0.00462169
1857 0.00247804
1860 0.00140791
1863 0.00078894
1866 0.00041257
1869 0.000502298
1872 0.000332439
1875 0.000271113
1878 0.000375872
1881 0.000569021
1884 0.000656393
1887 0.00234777
1890 0.0060854
1893 0.0098466
1896 0.0137355
1899 0.0232796
1902 0.0299454
1905 0.0171193
1908 0.00597529
1911 0.00282442
1914 0.00227566
1917 0.00252088
1920 0.00598248
1923 0.0105946
1926 0.014335
1929 0.0179527
1932 0.0171347
1935 0.0127013
1938 0.00721294
1941 0.00383701
1944 0.00448085
1947 0.00815078
1950 0.0167485
1953 0.0319489
1956 0.0556035
1959 0.067671
1962 0.0535028
1965 0.0323559
1968 0.0139696
1971 0.00681086
1974 0.00613192
1977 0.00987067
1980 0.0167541
1983 0.0232256
1986 0.0301063
1989 0.0253471
1992 0.0254342
1995 0.0186948
1998 0.0078812
2001 0.00537032
2004 0.00736966
2007 0.0149852
2010 0.0266787
2013 0.0374766
2016 0.0566719
2019 0.0479213
2022 0.0215339
2025 0.0116065
2028 0.00806056
2031 0.00498558
2034 0.00506216
2037 0.00691235
2040 0.00709151
2043 0.00539744
2046 0.00452151
2049 0.00479515
2052 0.0068718
2055 0.00821729
2058 0.00984817
2061 0.0177958
2064 0.0373476
2067 0.054846
2070 0.0610467
2073 0.0529832
2076 0.0488701
2079 0.0358253
2082 0.0218331
2085 0.00909686
2088 0.00405538
2091 0.00269745
2094 0.0018942
2097 0.00160458
2100 0.00140564
2103 0.00166276
2106 0.00232632
2109 0.00280863
2112 0.00460608
2115 0.00966854
2118 0.0172121
2121 0.024096
2124 0.0213184
2127 0.0148597
2130 0.013253
2133 0.0188889
2136 0.0203454
2139 0.0106101
2142 0.0100227
2145 0.0151297
2148 0.0203723
2151 0.0225457
2154 0.0211675
2157 0.0159048
2160 0.0124062
2163 0.0100007
2166 0.00881155
2169 0.0153201
2172 0.0184929
2175 0.0274403
2178 0.0398371
2181 0.0414328
2184 0.0311562
2187 0.0132149
2190 0.00564417
2193 0.00377003
2196 0.0053987
2199 0.00927716
2202 0.0108695
2205 0.0129083
2208 0.011435
2211 0.00708466
2214 0.00392332
2217 0.00473847
2220 0.00843388
2223 0.0152738
2226 0.0202962
2229 0.0187422
2232 0.0138805
2235 0.0133442
2238 0.01851
2241 0.0126213
2244 0.00713756
2247 0.0088556
2250 0.0104594
2253 0.013917
2256 0.0155993
2259 0.0140207
2262 0.00999328
2265 0.00765366
2268 0.00760271
2271 0.0128429
2274 0.0189313
2277 0.025824
2280 0.024255
2283 0.0178588
2286 0.0189555
2289 0.021806
2292 0.0101671
2295 0.00329677
2298 0.00154913
2301 0.000957334
2304 0.000723132
2307 0.000442923
2310 0.00038619
2313 1.47558e-05
2316 0.000439991
2319 0.000587688
2322 0.00131145
2325 0.0043566
2328 0.00832079
2331 0.010777
2334 0.00858442
2337 0.00288727
2340 0.00239576
2343 0.00357021
2346 0.00601923
2349 0.00839168
2352 0.00907173
2355 0.00823087
2358 0.00756993
2361 0.0095302
2364 0.00983664
2367 0.0125988
2370 0.0215168
2373 0.032095
2376 0.0404937
2379 0.0499153
2382 0.0453571
2385 0.0267953
2388 0.0161924
2391 0.0168201
2394 0.0144652
2397 0.0123513
2400 0.01272
2403 0.0133919
2406 0.0130413
2409 0.00961316
2412 0.00902691
2415 0.0110277
2418 0.0103043
2421 0.011875
2424 0.0167102
2427 0.0159062
2430 0.0147226
2433 0.016038
2436 0.0111164
2439 0.00917127
2442 0.0090346
2445 0.0100546
2448 0.0109906
2451 0.010105
2454 0.0104916
2457 0.0119125
2460 0.0145717
2463 0.0225029
2466 0.0310597
2469 0.0354428
2472 0.0375913
2475 0.0340158
2478 0.0283255
2481 0.0227957
2484 0.0193341
2487 0.0106674
2490 0.00472284
2493 0.00376338
2496 0.00313495
2499 0.00297598
2502 0.00345825
2505 0.00487831
2508 0.00938235
2511 0.0145189
2514 0.0203595
2517 0.028858
2520 0.0276819
2523 0.0264868
2526 0.0216103
2529 0.0111583
2532 0.00690055
2535 0.00721355
2538 0.00764026
2541 0.00736879
2544 0.00663594
2547 0.00471936
2550 0.00543691
2553 0.0066344
2556 0.00752761
2559 0.00858703
2562 0.00787923
2565 0.00574814
2568 0.00549534
2571 0.00808747
2574 0.0110867
2577 0.012062
2580 0.0128587
2583 0.0137678
2586 0.0142
2589 0.011476
2592 0.00918577
2595 0.0082956
2598 0.00555496
2601 0.0020389
2604 0.00159037
2607 0.000940796
2610 0.0011012
2613 0.000957166
2616 0.00232715
2619 0.00338365
2622 0.00537091
2625 0.00666186
2628 0.008698
2631 0.0100158
2634 0.0101244
2637 0.0107638
2640 0.0137783
2643 0.0174905
2646 0.0215063
2649 0.0271667
2652 0.0270417
2655 0.0254106
2658 0.0219846
2661 0.0164124
2664 0.00809881
2667 0.00269806
2670 0.00139867
2673 0.00120335
2676 0.000945376
2679 0.000543859
2682 0.00105806
2685 0.00206057
2688 0.00237953
2691 0.00135212
2694 0.00134426
2697 0.00121135
2700 0.00264194
2703 0.00474921
2706 0.00715952
2709 0.00767372
2712 0.00825653
2715 0.00993612
2718 0.00917756
2721 0.0100735
2724 0.0123666
2727 0.0159567
2730 0.0204373
2733 0.0243679
2736 0.0246547
2739 0.0217087
2742 0.0177362
2745 0.0156294
2748 0.0137388
2751 0.0104868
2754 0.00686575
2757 0.00497929
2760 0.0047856
2763 0.00598631
2766 0.00745858
2769 0.0102922
2772 0.0134773
2775 0.0138037
2778 0.0163518
2781 0.015473
2784 0.0130316
2787 0.0105794
2790 0.0122725
2793 0.0117184
2796 0.00751073
2799 0.00574216
2802 0.00476162
2805 0.0052373
2808 0.0079079
2811 0.00940586
2814 0.00991417
2817 0.0137141
2820 0.0155762
2823 0.0131874
2826 0.00814135
2829 0.00214221
2832 0.000921177
2835 0.00136485
2838 0.000424723
2841 0.000000000000000000e+00
2844 0.00110249
2847 0.00348646
2850 0.00527624
2853 0.00653761
2856 0.00815651
2859 0.00752487
2862 0.00871095
2865 0.00691981
2868 0.00737493
2871 0.00856351
2874 0.00692373
2877 0.00494473
2880 0.00603456
2883 0.00674233
2886 0.00985851
2889 0.0136841
2892 0.0189199
2895 0.021558
2898 0.0224911
2901 0.0186302
2904 0.0181012
2907 0.0196411
2910 0.0175154
2913 0.0132795
2916 0.00959816
2919 0.00799791
2922 0.00935015
2925 0.00754889
2928 0.00724299
2931 0.00518937
2934 0.00542643
2937 0.00720158
2940 0.00838506
2943 0.00922836
2946 0.00709532
2949 0.00655612
2952 0.00625534
2955 0.00648931
2958 0.00716725
2961 0.0078368
2964 0.00590386
2967 0.00611775
2970 0.00633085
2973 0.00765352
2976 0.00935507
2979 0.00839633
2982 0.00820192
2985 0.00723342
2988 0.00385848
2991 0.00124289
2994 0.00129715
2997 0.000561539
3000 0.000227441
3003 0.00196131
3006 0.00291897
3009 0.00413405
3012 0.00446406
3015 0.00587664
3018 0.00408996
3021 0.00472638
3024 0.00688397
3027 0.00840907
3030 0.00857109
3033 0.00816018
3036 0.00743891
3039 0.00661148
3042 0.00835313
3045 0.00915303
3048 0.00926456
3051 0.00685196
3054 0.00602814
3057 0.00534673
3060 0.00655818
3063 0.00889322
3066 0.0100172
3069 0.0101661
3072 0.0107319
3075 0.00975447
3078 0.00924064
3081 0.00993001
3084 0.00903928
3087 0.0111825
3090 0.0116449
3093 0.00928436
3096 0.00783791
3099 0.00939332
3102 0.0115942
3105 0.009067
3108 0.00614976
3111 0.00623213
3114 0.00805364
3117 0.00890906
3120 0.0123206
3123 0.0148854
3126 0.0165458
3129 0.0173567
3132 0.0167672
3135 0.0135702
3138 0.00807572
3141 0.00771546
3144 0.00538181
3147 0.00467386
3150 0.00359555
3153 0.00278549
3156 0.0037641
3159 0.00390019
3162 0.00568404
3165 0.00839436
3168 0.0104306
3171 0.010618
3174 0.00761327
3177 0.00723486
3180 0.00745957
3183 0.00894273
3186 0.0097739
3189 0.0112907
3192 0.0126882
3195 0.0155829
3198 0.0169796
3201 0.0158706
3204 0.0150932
3207 0.0127997
3210 0.0122969
3213 0.0101371
3216 0.00789242
3219 0.00458393
3222 0.00128162
3225 0.00394654
3228 0.00214381
3231 0.00233291
3234 0.0021756
3237 0.00267457
3240 0.00198199
3243 0.00115708
3246 0.00307196
3249 0.00235661
3252 0.0021675
3255 0.00499961
3258 0.00456797
3261 0.00635832
3264 0.0081748
3267 0.00777653
3270 0.00884528
3273 0.00930029
3276 0.00843483
3279 0.00668091
3282 0.0041635
3285 0.00581295
3288 0.00352953
3291 0.00329093
3294 2.13652e-05
3297 0.00113828
3300 0.00289685
3303 0.00149552
3306 0.00247
3309 0.00370323
3312 0.00294343
3315 0.00449745
3318 0.00241617
3321 0.00290033
3324 0.00209699
3327 0.00397971
3330 0.00586573
3333 0.00664378
3336 0.00837714
3339 0.0107569
3342 0.00874547
3345 0.00840984
3348 0.00927692
3351 0.00927922
3354 0.00743597
3357 0.00739417
3360 0.0065613
3363 0.0059002
3366 0.00563768
3369 0.00368204
3372 0.00614605
3375 0.00612357
3378 0.00571217
3381 0.00727328
3384 0.00516219
3387 0.00622716
3390 0.00647556
3393 0.00550117
3396 0.00837361
3399 0.0082063
3402 0.00452181
3405 0.00701724
3408 0.00680232
3411 0.00487487
3414 0.00536906
3417 0.0062149
3420 0.00475618
3423 0.00281334
3426 0.00626026
3429 0.0057693
3432 0.00721586
3435 0.00695748
3438 0.0090551
3441 0.0078255
3444 0.0118734
3447 0.00959346
3450 0.0147929
3453 0.0132832
3456 0.0125609
3459 0.00904745
3462 0.0133873
3465 0.00918946
3468 0.0128454
3471 0.0165531
3474 0.0144224
3477 0.0155332
3480 0.0220009
3483 0.0154059
3486 0.0208761
3487 4.01326e-05