File: constrainednmf/example_data/BaTiO3_xrd_ramp/BTO_385K_tth.xy
0.000000000000000000e+00 0.00133833
3 0.00137726
6 0.00155118
9 0.00363972
12 0.013212
15 0.0149882
18 0.014274
21 0.0135024
24 0.0138015
27 0.0137541
30 0.0112836
33 0.00491989
36 0.00362655
39 0.00360754
42 0.00375377
45 0.00378921
48 0.00371701
51 0.00369399
54 0.00373548
57 0.00374415
60 0.00380361
63 0.00380305
66 0.00385882
69 0.00391475
72 0.00389908
75 0.00402666
78 0.00413134
81 0.00426689
84 0.0043764
87 0.00442183
90 0.00437587
93 0.00434542
96 0.00430524
99 0.0042208
102 0.00422946
105 0.00417571
108 0.00418257
111 0.00422011
114 0.00428457
117 0.00425761
120 0.00424761
123 0.00419949
126 0.00417263
129 0.00425965
132 0.004198
135 0.00417473
138 0.00413852
141 0.00416934
144 0.00422049
147 0.00418242
150 0.00409533
153 0.004079
156 0.00406332
159 0.00407873
162 0.0040378
165 0.00403683
168 0.00404637
171 0.00400798
174 0.00399155
177 0.00397586
180 0.0038675
183 0.00382672
186 0.00381131
189 0.00379572
192 0.00378284
195 0.00385883
198 0.0037659
201 0.0038016
204 0.00370949
207 0.00375886
210 0.00373366
213 0.00366158
216 0.00368448
219 0.00366064
222 0.00367902
225 0.00368881
228 0.00368657
231 0.00365423
234 0.00363006
237 0.00361659
240 0.00376367
243 0.00376129
246 0.00373932
249 0.00368891
252 0.00379534
255 0.0037848
258 0.00377538
261 0.00379764
264 0.00387621
267 0.00389739
270 0.00403333
273 0.00395933
276 0.00397382
279 0.0041086
282 0.00421189
285 0.00430938
288 0.00433247
291 0.00421492
294 0.00411954
297 0.00396709
300 0.00373435
303 0.00363455
306 0.00361653
309 0.00355502
312 0.00358502
315 0.00359765
318 0.00362654
321 0.00384346
324 0.00451569
327 0.00799696
330 0.0355649
333 0.111495
336 0.0617208
339 0.00932861
342 0.00412656
345 0.00319314
348 0.00291096
351 0.00269899
354 0.00280574
357 0.00390886
360 0.00569899
363 0.00457449
366 0.0031027
369 0.00243796
372 0.00210697
375 0.00204896
378 0.00200815
381 0.00201767
384 0.00203252
387 0.00209938
390 0.00196667
393 0.00196254
396 0.00199016
399 0.0019997
402 0.00214447
405 0.00203347
408 0.00216649
411 0.0023106
414 0.00257417
417 0.00245705
420 0.00234567
423 0.00246736
426 0.00252202
429 0.00249655
432 0.00242159
435 0.00258636
438 0.00266614
441 0.00301624
444 0.0032948
447 0.00367231
450 0.00434975
453 0.00492363
456 0.00591955
459 0.00780222
462 0.0112798
465 0.0223767
468 0.0885378
471 0.708509
474 0.755359
477 0.11086
480 0.0228569
483 0.0109952
486 0.0073212
489 0.00556091
492 0.00432168
495 0.00360425
498 0.00303749
501 0.00291292
504 0.00296607
507 0.00322809
510 0.00364345
513 0.00317389
516 0.00274912
519 0.00207353
522 0.00156883
525 0.0014516
528 0.00147294
531 0.0013491
534 0.0011634
537 0.00129875
540 0.001334
543 0.00130492
546 0.00135371
549 0.00139658
552 0.00160574
555 0.00170261
558 0.00196065
561 0.00218657
564 0.00272707
567 0.00351464
570 0.00494722
573 0.0117075
576 0.0706059
579 0.386645
582 0.102967
585 0.0138578
588 0.00568089
591 0.00359875
594 0.00293257
597 0.00252233
600 0.00204858
603 0.00178843
606 0.00164039
609 0.00173992
612 0.00155604
615 0.00180367
618 0.0019582
621 0.00232411
624 0.00315192
627 0.00292478
630 0.00263555
633 0.00262309
636 0.00278367
639 0.00290409
642 0.00253564
645 0.00292119
648 0.00357548
651 0.00482413
654 0.00641368
657 0.0101631
660 0.0203436
663 0.0682936
666 0.192728
669 0.284344
672 0.288306
675 0.0478282
678 0.0145881
681 0.00781826
684 0.00557522
687 0.00480221
690 0.00465273
693 0.0037572
696 0.00292453
699 0.00251414
702 0.00226755
705 0.00199611
708 0.00205761
711 0.00183681
714 0.00172267
717 0.00196246
720 0.0021539
723 0.00201888
726 0.00213934
729 0.00233432
732 0.00252275
735 0.00328228
738 0.00510561
741 0.0110575
744 0.0438106
747 0.0983692
750 0.124121
753 0.0288248
756 0.00704145
759 0.00378266
762 0.00267991
765 0.00232741
768 0.00224449
771 0.00207036
774 0.00219804
777 0.00215761
780 0.00227909
783 0.00247287
786 0.00286912
789 0.00284849
792 0.00321932
795 0.0036219
798 0.00427954
801 0.00514995
804 0.00682548
807 0.00954717
810 0.0162675
813 0.041024
816 0.183578
819 0.510859
822 0.452913
825 0.0723942
828 0.0200069
831 0.0102761
834 0.00705713
837 0.00530038
840 0.00434956
843 0.0034506
846 0.0031803
849 0.00276071
852 0.00250539
855 0.00217628
858 0.00242541
861 0.00225551
864 0.00195854
867 0.00171772
870 0.00170468
873 0.0016582
876 0.00175105
879 0.00186791
882 0.0020711
885 0.00186842
888 0.00182452
891 0.00156716
894 0.00145346
897 0.00146537
900 0.00131362
903 0.00120221
906 0.00147948
909 0.00136323
912 0.00129485
915 0.00161431
918 0.00168867
921 0.00200897
924 0.00233703
927 0.00281594
930 0.00358373
933 0.00511176
936 0.00834908
939 0.0176294
942 0.0641312
945 0.288941
948 0.287169
951 0.119412
954 0.0234656
957 0.00905232
960 0.00535014
963 0.00393293
966 0.00319975
969 0.00284926
972 0.00276874
975 0.00270882
978 0.00272526
981 0.00235767
984 0.00204573
987 0.0019334
990 0.00259015
993 0.00395984
996 0.00724655
999 0.0182043
1002 0.0597553
1005 0.10193
1008 0.0465669
1011 0.0101996
1014 0.00416705
1017 0.00282423
1020 0.00228557
1023 0.00192663
1026 0.00198031
1029 0.00210558
1032 0.00249301
1035 0.00275316
1038 0.00323044
1041 0.00437001
1044 0.00673017
1047 0.011842
1050 0.0277495
1053 0.0904925
1056 0.126028
1059 0.169138
1062 0.241889
1065 0.0594146
1068 0.0171552
1071 0.00834296
1074 0.0055176
1077 0.00440477
1080 0.00340762
1083 0.00296892
1086 0.00279019
1089 0.00290945
1092 0.00326294
1095 0.00377592
1098 0.00535987
1101 0.00992918
1104 0.0297025
1107 0.0711519
1110 0.0826481
1113 0.140186
1116 0.0420063
1119 0.0106785
1122 0.00455575
1125 0.00301473
1128 0.00224319
1131 0.00178481
1134 0.00163342
1137 0.00173416
1140 0.0017847
1143 0.00209243
1146 0.00206167
1149 0.0034869
1152 0.00561108
1155 0.015801
1158 0.0840321
1161 0.166182
1164 0.034233
1167 0.00781297
1170 0.00382541
1173 0.00250197
1176 0.00213044
1179 0.00154386
1182 0.00146485
1185 0.00149565
1188 0.00156
1191 0.00225756
1194 0.00254305
1197 0.00367497
1200 0.00674693
1203 0.0199322
1206 0.0364338
1209 0.0434191
1212 0.0258555
1215 0.00709318
1218 0.00392864
1221 0.00308602
1224 0.00329859
1227 0.00322256
1230 0.00383796
1233 0.00452532
1236 0.00579866
1239 0.00818236
1242 0.0130413
1245 0.0272819
1248 0.0885153
1251 0.235324
1254 0.335185
1257 0.214464
1260 0.0477405
1263 0.0165922
1266 0.00892732
1269 0.00596517
1272 0.00435395
1275 0.00345244
1278 0.00278269
1281 0.00216707
1284 0.00190173
1287 0.00201164
1290 0.00148719
1293 0.00149456
1296 0.00134394
1299 0.00136762
1302 0.00124616
1305 0.00123131
1308 0.00138836
1311 0.00135611
1314 0.00141213
1317 0.00122691
1320 0.00184515
1323 0.00180444
1326 0.00295756
1329 0.00612823
1332 0.016071
1335 0.0200671
1338 0.014809
1341 0.0269877
1344 0.0494634
1347 0.017305
1350 0.00620673
1353 0.00331625
1356 0.00260061
1359 0.00228862
1362 0.00236546
1365 0.00265368
1368 0.00333177
1371 0.00655705
1374 0.0149539
1377 0.024062
1380 0.0424512
1383 0.0644621
1386 0.0385665
1389 0.0108876
1392 0.00511131
1395 0.00361409
1398 0.00345322
1401 0.00358556
1404 0.00515697
1407 0.00694839
1410 0.0116374
1413 0.0279702
1416 0.0616001
1419 0.086657
1422 0.10802
1425 0.146233
1428 0.0564879
1431 0.0163914
1434 0.00852081
1437 0.00595155
1440 0.00451167
1443 0.00410898
1446 0.00393353
1449 0.00434805
1452 0.00637206
1455 0.0143148
1458 0.0466465
1461 0.0615437
1464 0.0429339
1467 0.0161342
1470 0.00614311
1473 0.00461264
1476 0.00399239
1479 0.0040796
1482 0.00559736
1485 0.00713473
1488 0.0129146
1491 0.0321974
1494 0.0670066
1497 0.0634064
1500 0.109633
1503 0.111359
1506 0.0367616
1509 0.0126668
1512 0.0073322
1515 0.00513572
1518 0.00432096
1521 0.00445978
1524 0.00545413
1527 0.00907833
1530 0.0207434
1533 0.0254874
1536 0.0313762
1539 0.0468927
1542 0.0198703
1545 0.00674338
1548 0.00407387
1551 0.00340025
1554 0.00298364
1557 0.00340802
1560 0.00401202
1563 0.00618735
1566 0.0124537
1569 0.0417764
1572 0.107234
1575 0.0707083
1578 0.0186634
1581 0.00681941
1584 0.00434002
1587 0.00344317
1590 0.00279384
1593 0.00244029
1596 0.00222655
1599 0.002468
1602 0.00211293
1605 0.00198817
1608 0.00200167
1611 0.00211058
1614 0.0025762
1617 0.002742
1620 0.00290312
1623 0.00301253
1626 0.00403273
1629 0.00543589
1632 0.00868038
1635 0.0194704
1638 0.0493474
1641 0.0620405
1644 0.106812
1647 0.0683193
1650 0.0174606
1653 0.00863387
1656 0.00576515
1659 0.00477768
1662 0.00480541
1665 0.00511631
1668 0.00687177
1671 0.0115251
1674 0.0174172
1677 0.0193574
1680 0.0190596
1683 0.0135328
1686 0.00692528
1689 0.00612773
1692 0.007969
1695 0.0103185
1698 0.0172215
1701 0.0349022
1704 0.0592857
1707 0.0973263
1710 0.122931
1713 0.137247
1716 0.0886979
1719 0.027055
1722 0.0132309
1725 0.0091385
1728 0.00776922
1731 0.00946172
1734 0.0148857
1737 0.0165997
1740 0.0172387
1743 0.0308517
1746 0.0366185
1749 0.0217993
1752 0.00733264
1755 0.00436671
1758 0.00283363
1761 0.00226884
1764 0.00172222
1767 0.0015773
1770 0.00165221
1773 0.00137048
1776 0.00149036
1779 0.00144847
1782 0.00165622
1785 0.00198335
1788 0.00210087
1791 0.00244295
1794 0.00383925
1797 0.00758722
1800 0.0130398
1803 0.0232613
1806 0.0347637
1809 0.0393601
1812 0.0212412
1815 0.00841536
1818 0.00558328
1821 0.00603114
1824 0.00809813
1827 0.0170781
1830 0.0363525
1833 0.035677
1836 0.0310856
1839 0.0608763
1842 0.0790738
1845 0.0296622
1848 0.00999266
1851 0.0055938
1854 0.00361628
1857 0.00241765
1860 0.00224855
1863 0.00123749
1866 0.00131996
1869 0.00119141
1872 0.0014964
1875 0.00132902
1878 0.00103086
1881 0.00161977
1884 0.00147495
1887 0.00261358
1890 0.00520202
1893 0.0131849
1896 0.0288722
1899 0.0198851
1902 0.0177679
1905 0.0119199
1908 0.00441164
1911 0.00287261
1914 0.002595
1917 0.00340577
1920 0.00657274
1923 0.0113632
1926 0.0159526
1929 0.0163332
1932 0.0176697
1935 0.00815879
1938 0.00379679
1941 0.00385473
1944 0.00530014
1947 0.00961483
1950 0.0204489
1953 0.0351201
1956 0.0598741
1959 0.0692348
1962 0.0367683
1965 0.01498
1968 0.00722394
1971 0.00595109
1974 0.0066899
1977 0.0108329
1980 0.0202935
1983 0.0199365
1986 0.0271164
1989 0.0318173
1992 0.0201945
1995 0.00826076
1998 0.00543123
2001 0.00648911
2004 0.0091695
2007 0.0127945
2010 0.0288722
2013 0.0539881
2016 0.0445489
2019 0.0358929
2022 0.0141834
2025 0.0065034
2028 0.00495045
2031 0.00579202
2034 0.00580284
2037 0.00410119
2040 0.00385768
2043 0.00534431
2046 0.00956734
2049 0.00895439
2052 0.00606109
2055 0.00769451
2058 0.0134148
2061 0.0226542
2064 0.0351202
2067 0.0375732
2070 0.05201
2073 0.0740945
2076 0.0451537
2079 0.0149544
2082 0.00744997
2085 0.00468183
2088 0.0031969
2091 0.0025257
2094 0.00219995
2097 0.0021057
2100 0.00227587
2103 0.00256633
2106 0.00258604
2109 0.00442877
2112 0.00915477
2115 0.0146231
2118 0.0116994
2121 0.00936705
2124 0.01409
2127 0.0294088
2130 0.029067
2133 0.0122825
2136 0.00700137
2139 0.00784977
2142 0.0101248
2145 0.0123901
2148 0.0170891
2151 0.0215226
2154 0.0220283
2157 0.0151896
2160 0.00687713
2163 0.00543154
2166 0.00703943
2169 0.0130615
2172 0.0280212
2175 0.0378675
2178 0.0316193
2181 0.0287952
2184 0.0181815
2187 0.00701172
2190 0.00406604
2193 0.00377803
2196 0.00586566
2199 0.00908021
2202 0.0111875
2205 0.0156064
2208 0.0080873
2211 0.00389143
2214 0.00463016
2217 0.0071989
2220 0.0120424
2223 0.0113074
2226 0.00934133
2229 0.015121
2232 0.0294399
2235 0.0191651
2238 0.00713059
2241 0.00533481
2244 0.00559506
2247 0.00832021
2250 0.0115208
2253 0.0136977
2256 0.0146262
2259 0.0120064
2262 0.00709198
2265 0.00596906
2268 0.00981804
2271 0.0162446
2274 0.0147034
2277 0.0135781
2280 0.0243812
2283 0.0314719
2286 0.0195823
2289 0.00667815
2292 0.00410447
2295 0.00192603
2298 0.00150907
2301 0.00127553
2304 0.00106238
2307 0.000786367
2310 0.00109814
2313 0.00139783
2316 0.00136951
2319 0.00214591
2322 0.00273157
2325 0.00647615
2328 0.0134304
2331 0.00911927
2334 0.00330863
2337 0.00315985
2340 0.00363539
2343 0.00509254
2346 0.00690575
2349 0.00574415
2352 0.00721456
2355 0.0114462
2358 0.0119948
2361 0.00911555
2364 0.0108611
2367 0.0124959
2370 0.0168202
2373 0.0325522
2376 0.0439462
2379 0.0443669
2382 0.0345002
2385 0.020185
2388 0.0115891
2391 0.00936106
2394 0.00959718
2397 0.0127321
2400 0.0123076
2403 0.0118946
2406 0.0153885
2409 0.0110872
2412 0.00747832
2415 0.00900869
2418 0.0129618
2421 0.0129776
2424 0.01597
2427 0.0163948
2430 0.0157945
2433 0.0107893
2436 0.00805068
2439 0.00849791
2442 0.00929006
2445 0.00897128
2448 0.0110567
2451 0.0126925
2454 0.0138298
2457 0.0133196
2460 0.0160253
2463 0.0187055
2466 0.0226406
2469 0.0270264
2472 0.031264
2475 0.0430249
2478 0.0296463
2481 0.012132
2484 0.00754538
2487 0.00510158
2490 0.00461175
2493 0.00422806
2496 0.00432913
2499 0.00429151
2502 0.00486293
2505 0.00661978
2508 0.0119409
2511 0.0189869
2514 0.0201735
2517 0.0270726
2520 0.0290593
2523 0.0205008
2526 0.0102081
2529 0.00637063
2532 0.00595641
2535 0.00614078
2538 0.00790194
2541 0.00877352
2544 0.00749856
2547 0.00654427
2550 0.00665216
2553 0.00664414
2556 0.00539953
2559 0.00542048
2562 0.00657004
2565 0.0109353
2568 0.0109491
2571 0.00853983
2574 0.00857547
2577 0.00831639
2580 0.00948537
2583 0.0120406
2586 0.0142982
2589 0.0143847
2592 0.00776662
2595 0.00368834
2598 0.00258953
2601 0.00241565
2604 0.00169171
2607 0.00201073
2610 0.00181589
2613 0.00219433
2616 0.00318764
2619 0.00472999
2622 0.00640724
2625 0.00756196
2628 0.0100272
2631 0.00964801
2634 0.00843082
2637 0.00936805
2640 0.0132158
2643 0.0168559
2646 0.0207784
2649 0.0210992
2652 0.0241256
2655 0.0255883
2658 0.0134343
2661 0.00593367
2664 0.00367162
2667 0.00319331
2670 0.00297364
2673 0.00179182
2676 0.00175081
2679 0.00208346
2682 0.00143777
2685 0.00195581
2688 0.00169699
2691 0.00145714
2694 0.00293653
2697 0.00427381
2700 0.00481795
2703 0.00476043
2706 0.00565106
2709 0.00603583
2712 0.0069313
2715 0.00782992
2718 0.0106331
2721 0.0114904
2724 0.011396
2727 0.0110017
2730 0.0125529
2733 0.0187015
2736 0.0229374
2739 0.0221449
2742 0.016894
2745 0.00922644
2748 0.00603618
2751 0.00431132
2754 0.0043361
2757 0.00664989
2760 0.00832197
2763 0.00634963
2766 0.00574052
2769 0.00668535
2772 0.00975412
2775 0.0123163
2778 0.0177869
2781 0.0160465
2784 0.0116443
2787 0.00790181
2790 0.005356
2793 0.00419826
2796 0.00446252
2799 0.00655296
2802 0.00697878
2805 0.00598396
2808 0.00508878
2811 0.00801727
2814 0.011594
2817 0.0127447
2820 0.0110159
2823 0.00716168
2826 0.00281438
2829 0.000768017
2832 0.00172894
2835 0.00117754
2838 0.00163645
2841 0.00273295
2844 0.00347053
2847 0.00454502
2850 0.00390969
2853 0.00611265
2856 0.00575998
2859 0.00638418
2862 0.0102906
2865 0.00965541
2868 0.00529153
2871 0.00419021
2874 0.00458664
2877 0.00423171
2880 0.0054452
2883 0.00865892
2886 0.0105818
2889 0.0122547
2892 0.012358
2895 0.0119108
2898 0.0178487
2901 0.0230032
2904 0.0195251
2907 0.0119335
2910 0.00829454
2913 0.00700839
2916 0.0077967
2919 0.00740333
2922 0.00618306
2925 0.0047993
2928 0.00433788
2931 0.00722663
2934 0.00830915
2937 0.00621077
2940 0.00536794
2943 0.00676819
2946 0.00469981
2949 0.00402401
2952 0.00503574
2955 0.00532044
2958 0.006891
2961 0.00690607
2964 0.00452151
2967 0.0060271
2970 0.00681952
2973 0.00677111
2976 0.00713391
2979 0.00670725
2982 0.00622784
2985 0.00316145
2988 0.00148338
2991 0.00219841
2994 0.0012149
2997 0.00168663
3000 0.00370419
3003 0.00383641
3006 0.00368046
3009 0.00264688
3012 0.00441941
3015 0.00431294
3018 0.00707733
3021 0.00746248
3024 0.00515099
3027 0.00572954
3030 0.00466453
3033 0.00712866
3036 0.00784409
3039 0.00880277
3042 0.00605016
3045 0.00488343
3048 0.00508775
3051 0.0052867
3054 0.00740689
3057 0.00952532
3060 0.010187
3063 0.00840828
3066 0.0070584
3069 0.00761658
3072 0.00825553
3075 0.0101057
3078 0.00987351
3081 0.00818855
3084 0.00624334
3087 0.00706675
3090 0.00924364
3093 0.0127035
3096 0.0113645
3099 0.00721525
3102 0.00641391
3105 0.00463515
3108 0.0058117
3111 0.00691766
3114 0.00690081
3117 0.00770638
3120 0.0105398
3123 0.012838
3126 0.0146606
3129 0.0133896
3132 0.0136729
3135 0.0121133
3138 0.00726851
3141 0.00475433
3144 0.00450246
3147 0.0041829
3150 0.00448829
3153 0.00263534
3156 0.00376543
3159 0.00675897
3162 0.00891802
3165 0.0073958
3168 0.00859836
3171 0.00743492
3174 0.00815838
3177 0.00632146
3180 0.00656667
3183 0.00868103
3186 0.0096844
3189 0.0112319
3192 0.0102581
3195 0.011625
3198 0.011756
3201 0.0155398
3204 0.014127
3207 0.0125325
3210 0.00755117
3213 0.00535332
3216 0.00177274
3219 0.003107
3222 0.00597451
3225 0.00526768
3228 0.00322622
3231 0.00296025
3234 0.00236949
3237 0.00229851
3240 0.00222584
3243 0.00269778
3246 0.00207404
3249 0.00272166
3252 0.00304075
3255 0.00350158
3258 0.00576725
3261 0.00516869
3264 0.00698306
3267 0.00727731
3270 0.00818787
3273 0.0071353
3276 0.010093
3279 0.00549436
3282 0.002714
3285 0.00213071
3288 0.000478389
3291 0.00133009
3294 0.00092771
3297 0.0023426
3300 0.00249667
3303 0.00104019
3306 0.0036457
3309 0.00235212
3312 0.006648
3315 0.00317306
3318 0.00380819
3321 0.00186087
3324 0.00207824
3327 0.00408966
3330 0.00425321
3333 0.00548458
3336 0.00557943
3339 0.00429536
3342 0.00611339
3345 0.00890585
3348 0.00891023
3351 0.00572856
3354 0.00424875
3357 0.00589332
3360 0.00333892
3363 0.00195484
3366 0.00442174
3369 0.00251894
3372 0.00260976
3375 0.00278816
3378 0.00332518
3381 0.00400819
3384 0.00594184
3387 0.0045878
3390 0.0085658
3393 0.00662288
3396 0.00535059
3399 0.00644362
3402 0.00511972
3405 0.00747917
3408 0.00624445
3411 0.00388451
3414 0.00169428
3417 0.00617129
3420 0.00452406
3423 0.00745219
3426 0.00749927
3429 0.00561706
3432 0.0080383
3435 0.0113272
3438 0.008255
3441 0.0119088
3444 0.0135389
3447 0.0154141
3450 0.00862565
3453 0.0153872
3456 0.0141094
3459 0.0100926
3462 0.0143524
3465 0.0222649
3468 0.0159563
3471 0.0127451
3474 0.0178118
3477 0.0180485
3480 0.0215199
3483 0.0211091
3486 0.022816
3487 0.000232744