File: constrainednmf/example_data/BaTiO3_xrd_ramp/BTO_395K_tth.xy
0.000000000000000000e+00 0.00019316
3 0.000284594
6 0.000514667
9 0.00262139
12 0.0122339
15 0.0140563
18 0.0132885
21 0.0125994
24 0.0129787
27 0.0128982
30 0.0105179
33 0.00412688
36 0.00290465
39 0.00290293
42 0.00304816
45 0.00302015
48 0.00302424
51 0.00300445
54 0.00303996
57 0.00299949
60 0.00307067
63 0.00310604
66 0.00308668
69 0.00311327
72 0.0031767
75 0.00325088
78 0.0033029
81 0.00347792
84 0.00355609
87 0.00356353
90 0.00355471
93 0.00347872
96 0.00343925
99 0.00339724
102 0.00331035
105 0.00325785
108 0.00326248
111 0.00321699
114 0.00331914
117 0.00322574
120 0.00316695
123 0.00313678
126 0.00303592
129 0.00315451
132 0.00308082
135 0.00304914
138 0.00299092
141 0.00301166
144 0.00302433
147 0.00290041
150 0.00287331
153 0.0028625
156 0.00280614
159 0.00293979
162 0.00277706
165 0.00272114
168 0.00271
171 0.00266233
174 0.00264
177 0.00256801
180 0.00258542
183 0.00254324
186 0.00248051
189 0.00244151
192 0.00244611
195 0.0023339
198 0.0023872
201 0.00236949
204 0.00232893
207 0.00229406
210 0.00219302
213 0.00226766
216 0.00226197
219 0.00229171
222 0.00218065
225 0.00220955
228 0.00224735
231 0.00221382
234 0.00219275
237 0.0022242
240 0.00222316
243 0.00224805
246 0.0021669
249 0.00231288
252 0.00223746
255 0.00221122
258 0.00220946
261 0.00234313
264 0.00235951
267 0.00245901
270 0.00245116
273 0.00251903
276 0.00247211
279 0.00265423
282 0.00272154
285 0.00275349
288 0.00267525
291 0.00270428
294 0.00273532
297 0.00248222
300 0.00237595
303 0.00209843
306 0.00205603
309 0.0020468
312 0.00205121
315 0.00207791
318 0.00208542
321 0.00233502
324 0.00304239
327 0.00641421
330 0.0330415
333 0.11187
336 0.0577804
339 0.00766269
342 0.00278116
345 0.0017568
348 0.00149595
351 0.00137112
354 0.00138631
357 0.00263113
360 0.00423733
363 0.00321879
366 0.0017123
369 0.000932184
372 0.000803697
375 0.000698726
378 0.000660002
381 0.000559393
384 0.000850302
387 0.000827401
390 0.000694364
393 0.000648751
396 0.000773035
399 0.000777161
402 0.000853054
405 0.000746755
408 0.000798857
411 0.00108659
414 0.00136542
417 0.00124175
420 0.00106627
423 0.00116777
426 0.00130282
429 0.00124661
432 0.00124287
435 0.00123858
438 0.00160568
441 0.00172988
444 0.00202139
447 0.002566
450 0.00309098
453 0.0037309
456 0.00478736
459 0.00657036
462 0.0101339
465 0.0211613
468 0.086742
471 0.706658
474 0.743108
477 0.104553
480 0.0210645
483 0.00950125
486 0.00617759
489 0.00447336
492 0.00325801
495 0.00245431
498 0.0017991
501 0.00156081
504 0.00178028
507 0.00227692
510 0.00235319
513 0.00204205
516 0.0015875
519 0.00103591
522 0.000470834
525 0.000489997
528 0.000220578
531 0.000134669
534 0.000139197
537 0.000141247
540 0.000304876
543 0.000161381
546 0.000129771
549 0.000370345
552 0.000375549
555 0.000596289
558 0.000660697
561 0.00105839
564 0.00164937
567 0.00205954
570 0.00405302
573 0.010832
576 0.070482
579 0.383105
582 0.098062
585 0.0123336
588 0.00440013
591 0.00261448
594 0.00164822
597 0.00133376
600 0.000999698
603 0.000870522
606 0.000446158
609 0.000686871
612 0.000686512
615 0.000459859
618 0.000584906
621 0.00110853
624 0.00193396
627 0.00163833
630 0.00131363
633 0.00143949
636 0.00164193
639 0.00168978
642 0.00148124
645 0.00192664
648 0.00246863
651 0.00360446
654 0.00530563
657 0.00910808
660 0.0188052
663 0.0622477
666 0.19001
669 0.301685
672 0.267958
675 0.0434116
678 0.0128865
681 0.00650294
684 0.004441
687 0.00361927
690 0.00353725
693 0.00250933
696 0.00194394
699 0.00109894
702 0.00098277
705 0.000921343
708 0.000879652
711 0.00047441
714 0.000713732
717 0.000705859
720 0.000864013
723 0.000948658
726 0.000764174
729 0.00104493
732 0.00132098
735 0.00215819
738 0.00379235
741 0.00952528
744 0.040442
747 0.101082
750 0.120739
753 0.0253933
756 0.00572967
759 0.00264779
762 0.00164529
765 0.00102572
768 0.00100633
771 0.000931102
774 0.00107591
777 0.00101127
780 0.00105021
783 0.00114581
786 0.00169064
789 0.00174743
792 0.0020122
795 0.00266964
798 0.00300735
801 0.00405191
804 0.00589567
807 0.00815741
810 0.0151752
813 0.0393724
816 0.177721
819 0.526935
822 0.42815
825 0.0670242
828 0.0184002
831 0.0089648
834 0.00575537
837 0.00399884
840 0.0032149
843 0.00260059
846 0.00205561
849 0.0015379
852 0.00112454
855 0.00114325
858 0.00126128
861 0.00094393
864 0.000821547
867 0.000631973
870 0.000712023
873 0.000547147
876 0.000499662
879 0.000653447
882 0.000932884
885 0.000779232
888 0.000863306
891 0.000421189
894 0.000616911
897 0.00038498
900 0.00047658
903 0.000434272
906 0.00051228
909 0.000237916
912 0.00038303
915 0.000566707
918 0.000525116
921 0.00111979
924 0.00122579
927 0.00166395
930 0.00278002
933 0.00403445
936 0.00742392
939 0.0166615
942 0.0625368
945 0.286279
948 0.292345
951 0.107936
954 0.0214241
957 0.00829506
960 0.00467686
963 0.00299806
966 0.00207105
969 0.00174295
972 0.00196451
975 0.00160405
978 0.00173896
981 0.00127428
984 0.00111542
987 0.00143769
990 0.00180119
993 0.00296878
996 0.00613496
999 0.0168495
1002 0.0593062
1005 0.102235
1008 0.0423422
1011 0.00862954
1014 0.00291728
1017 0.00194868
1020 0.00138652
1023 0.0011449
1026 0.00119099
1029 0.0011911
1032 0.00141616
1035 0.00191343
1038 0.00250878
1041 0.00387824
1044 0.00578843
1047 0.0110062
1050 0.0256433
1053 0.0819651
1056 0.129388
1059 0.183732
1062 0.227132
1065 0.0521888
1068 0.0156648
1071 0.00722295
1074 0.00470937
1077 0.00329212
1080 0.00270542
1083 0.0022544
1086 0.00191408
1089 0.00218127
1092 0.00240061
1095 0.00289183
1098 0.00460599
1101 0.00924523
1104 0.0267148
1107 0.0691419
1110 0.0887464
1113 0.136125
1116 0.036836
1119 0.00911405
1122 0.00392051
1125 0.00240287
1128 0.00125037
1131 0.00113035
1134 0.000985206
1137 0.000865927
1140 0.00103586
1143 0.0013663
1146 0.00150005
1149 0.00231156
1152 0.00492667
1155 0.0154937
1158 0.0847923
1161 0.162028
1164 0.0314377
1167 0.00687019
1170 0.00296691
1173 0.00150933
1176 0.00141352
1179 0.000831341
1182 0.000741794
1185 0.000882704
1188 0.00081394
1191 0.00130041
1194 0.00158829
1197 0.00308361
1200 0.00571784
1203 0.0185377
1206 0.0366871
1209 0.0436594
1212 0.0228925
1215 0.00600162
1218 0.00267552
1221 0.00244395
1224 0.00220044
1227 0.00272918
1230 0.00307217
1233 0.0034513
1236 0.0049191
1239 0.0074659
1242 0.0124202
1245 0.0259818
1248 0.0839653
1251 0.236168
1254 0.344209
1257 0.197697
1260 0.0426773
1263 0.0150952
1266 0.00767548
1269 0.0049571
1272 0.00368733
1275 0.00220292
1278 0.00185224
1281 0.00142132
1284 0.0011133
1287 0.000904944
1290 0.000449588
1293 0.000521191
1296 0.000515379
1299 0.00019126
1302 0.000157826
1305 0.000250919
1308 0.000100867
1311 0.00036347
1314 0.000522382
1317 0.000661178
1320 0.000762314
1323 0.000981308
1326 0.00190629
1329 0.00472723
1332 0.0131785
1335 0.0198579
1338 0.015351
1341 0.0288088
1344 0.0464066
1347 0.0137695
1350 0.00416843
1353 0.00227213
1356 0.00184327
1359 0.00109186
1362 0.00107962
1365 0.00157943
1368 0.00253787
1371 0.00511327
1374 0.0127704
1377 0.023414
1380 0.0431433
1383 0.0647216
1386 0.0346192
1389 0.00909639
1392 0.00377158
1395 0.00271247
1398 0.00219921
1401 0.00281996
1404 0.00370147
1407 0.00548168
1410 0.0102309
1413 0.0248163
1416 0.0580879
1419 0.0875905
1422 0.11443
1425 0.142144
1428 0.0477017
1431 0.0144623
1434 0.0069668
1437 0.00480337
1440 0.00353584
1443 0.00324169
1446 0.00270249
1449 0.00314052
1452 0.00526452
1455 0.0123319
1458 0.0448518
1461 0.0616365
1464 0.0406926
1467 0.0127962
1470 0.00502779
1473 0.00328656
1476 0.00289953
1479 0.00293745
1482 0.00433862
1485 0.00667256
1488 0.0113234
1491 0.0284955
1494 0.0642026
1497 0.0662864
1500 0.115088
1503 0.103212
1506 0.030658
1509 0.0105488
1512 0.00585671
1515 0.00404937
1518 0.00318364
1521 0.00270867
1524 0.00389701
1527 0.00693775
1530 0.0179498
1533 0.0255316
1536 0.0324368
1539 0.0447811
1542 0.0161354
1545 0.00494725
1548 0.00277588
1551 0.00208438
1554 0.00173518
1557 0.00202918
1560 0.00287454
1563 0.00492758
1566 0.0111378
1569 0.0406819
1572 0.106515
1575 0.0662314
1578 0.0160468
1581 0.0054029
1584 0.0028977
1587 0.00225314
1590 0.00170155
1593 0.00114185
1596 0.00104422
1599 0.00102715
1602 0.000869121
1605 0.000802881
1608 0.000304289
1611 0.000617409
1614 0.000996919
1617 0.00133711
1620 0.00149012
1623 0.00196609
1626 0.00281024
1629 0.00412797
1632 0.00739506
1635 0.0175243
1638 0.0464434
1641 0.0646255
1644 0.108711
1647 0.0595282
1650 0.0146742
1653 0.00694566
1656 0.00437528
1659 0.00372186
1662 0.00337689
1665 0.00369858
1668 0.00562949
1671 0.0099652
1674 0.0160935
1677 0.0185539
1680 0.0182784
1683 0.0104501
1686 0.00555503
1689 0.00498423
1692 0.00572057
1695 0.00860662
1698 0.0147627
1701 0.0310795
1704 0.0571591
1707 0.0976401
1710 0.12721
1713 0.139196
1716 0.0764486
1719 0.0229762
1722 0.0114073
1725 0.00755619
1728 0.0063301
1731 0.00745297
1734 0.0126474
1737 0.0153231
1740 0.0168522
1743 0.0309402
1746 0.0363609
1749 0.0175886
1752 0.00533846
1755 0.00289832
1758 0.00196788
1761 0.00137009
1764 0.000914005
1767 0.000758181
1770 0.000510641
1773 0.000498905
1776 0.000471729
1779 0.000365235
1782 0.000875542
1785 0.000787447
1788 0.00103578
1791 0.00147188
1794 0.00289479
1797 0.00556167
1800 0.0120519
1803 0.0224589
1806 0.0343389
1809 0.0382356
1812 0.017622
1815 0.00671982
1818 0.00438501
1821 0.0047279
1824 0.00700059
1827 0.0143969
1830 0.0323213
1833 0.0364982
1836 0.0325689
1839 0.0651424
1842 0.0730347
1845 0.0244798
1848 0.00834851
1851 0.00408123
1854 0.00263062
1857 0.00182211
1860 0.00105422
1863 0.000529661
1866 0.000209209
1869 0.000501538
1872 0.000279671
1875 0.000305468
1878 0.000234676
1881 0.000545111
1884 0.000753887
1887 0.00171302
1890 0.00441638
1893 0.0116775
1896 0.0279928
1899 0.0198478
1902 0.0176106
1905 0.00966312
1908 0.0036982
1911 0.00170579
1914 0.0021102
1917 0.00270628
1920 0.00540442
1923 0.0106548
1926 0.0159116
1929 0.0167423
1932 0.0165521
1935 0.00654384
1938 0.00337753
1941 0.00359231
1944 0.00444314
1947 0.00833975
1950 0.0191006
1953 0.0345405
1956 0.0612628
1959 0.0670914
1962 0.0331115
1965 0.0128211
1968 0.00649362
1971 0.00465346
1974 0.00545333
1977 0.00985907
1980 0.0184295
1983 0.0204683
1986 0.0283701
1989 0.0317356
1992 0.0175053
1995 0.00683632
1998 0.00498752
2001 0.00593458
2004 0.0084501
2007 0.0123227
2010 0.0282036
2013 0.0537596
2016 0.0459736
2019 0.0330443
2022 0.0117832
2025 0.00556436
2028 0.00401377
2031 0.00484797
2034 0.00503929
2037 0.00386852
2040 0.00326984
2043 0.00527822
2046 0.00918834
2049 0.00766077
2052 0.00554699
2055 0.00672296
2058 0.0118569
2061 0.0208139
2064 0.0338038
2067 0.0383711
2070 0.0553925
2073 0.0737634
2076 0.0380559
2079 0.0130091
2082 0.00606692
2085 0.00393513
2088 0.00268085
2091 0.00180997
2094 0.0015038
2097 0.00148482
2100 0.00188235
2103 0.00222565
2106 0.00241075
2109 0.00391992
2112 0.00758059
2115 0.0128021
2118 0.0122217
2121 0.00997835
2124 0.0149818
2127 0.0308366
2130 0.0254461
2133 0.010051
2136 0.00643514
2139 0.00681147
2142 0.00935521
2145 0.0118243
2148 0.016873
2151 0.0217155
2154 0.0217296
2157 0.0127514
2160 0.0057497
2163 0.00452742
2166 0.00620853
2169 0.0119402
2172 0.0270075
2175 0.0376169
2178 0.0318313
2181 0.0280489
2184 0.0148052
2187 0.00595011
2190 0.00352924
2193 0.00317049
2196 0.00527939
2199 0.00829162
2202 0.0110533
2205 0.0143491
2208 0.00617743
2211 0.00309747
2214 0.00329342
2217 0.00589023
2220 0.0103454
2223 0.0108647
2226 0.00873958
2229 0.0160301
2232 0.0288625
2235 0.0158496
2238 0.00552561
2241 0.00379302
2244 0.00451877
2247 0.00706758
2250 0.0109797
2253 0.0133805
2256 0.0142823
2259 0.0109751
2262 0.00563355
2265 0.00465059
2268 0.00861365
2271 0.01447
2274 0.0141274
2277 0.0138964
2280 0.0253676
2283 0.0298688
2286 0.0155442
2289 0.00548371
2292 0.00237853
2295 0.00127385
2298 0.000735905
2301 0.00031799
2304 0.000261702
2307 0.000126831
2310 0.000619412
2313 0.000341202
2316 0.000208947
2319 0.00104182
2322 0.0017644
2325 0.00542574
2328 0.012813
2331 0.00730123
2334 0.00230833
2337 0.00187335
2340 0.0030091
2343 0.00391602
2346 0.0058205
2349 0.00535891
2352 0.00691475
2355 0.0110223
2358 0.0100114
2361 0.00689364
2364 0.00839539
2367 0.0111039
2370 0.0158569
2373 0.0311213
2376 0.043777
2379 0.0432182
2382 0.031428
2385 0.0158306
2388 0.0096347
2391 0.00815193
2394 0.00789465
2397 0.0115511
2400 0.0114628
2403 0.0117108
2406 0.0138898
2409 0.00823634
2412 0.00552848
2415 0.00745197
2418 0.0113008
2421 0.0116674
2424 0.0152111
2427 0.0156636
2430 0.0143306
2433 0.00826087
2436 0.0062793
2439 0.0065725
2442 0.00770456
2445 0.00769841
2448 0.00992796
2451 0.0116475
2454 0.0117088
2457 0.0107518
2460 0.0138294
2463 0.0173906
2466 0.0212711
2469 0.0263605
2472 0.0327443
2475 0.0414586
2478 0.0247533
2481 0.00952607
2484 0.00577005
2487 0.00412957
2490 0.00319391
2493 0.00313993
2496 0.00295027
2499 0.00279294
2502 0.00324004
2505 0.00498101
2508 0.0100343
2511 0.0174764
2514 0.0193221
2517 0.027526
2520 0.0277575
2523 0.0171833
2526 0.00769735
2529 0.00538137
2532 0.00451328
2535 0.00511348
2538 0.00675189
2541 0.00746976
2544 0.0059788
2547 0.00460355
2550 0.0042672
2553 0.00536358
2556 0.00399352
2559 0.00358108
2562 0.00608881
2565 0.00965601
2568 0.00875609
2571 0.0060882
2574 0.00676791
2577 0.00690617
2580 0.0080277
2583 0.0111841
2586 0.0134761
2589 0.0121377
2592 0.00533365
2595 0.00226018
2598 0.00178804
2601 0.000753587
2604 0.000919443
2607 0.000466633
2610 0.00114017
2613 0.00102409
2616 0.000938897
2619 0.00246809
2622 0.00511066
2625 0.00717291
2628 0.00822944
2631 0.00808561
2634 0.00624915
2637 0.00736175
2640 0.0117733
2643 0.015728
2646 0.0203151
2649 0.0211287
2652 0.024645
2655 0.0229561
2658 0.0101463
2661 0.00364299
2664 0.00240145
2667 0.00167431
2670 0.000802523
2673 0.000295216
2676 0.000873298
2679 0.000920842
2682 0.00067102
2685 0.00104509
2688 0.00024359
2691 0.000737962
2694 0.00172712
2697 0.00333852
2700 0.00369088
2703 0.00374385
2706 0.0050255
2709 0.00613305
2712 0.00675401
2715 0.00776198
2718 0.00904922
2721 0.00948605
2724 0.0102182
2727 0.0108122
2730 0.0129035
2733 0.0186678
2736 0.0234466
2739 0.0207514
2742 0.0134874
2745 0.00683109
2748 0.00494257
2751 0.00445893
2754 0.00360856
2757 0.00625653
2760 0.00630667
2763 0.00560313
2766 0.00568246
2769 0.00692594
2772 0.00838554
2775 0.0127826
2778 0.0174464
2781 0.0144276
2784 0.00969305
2787 0.00582282
2790 0.00469513
2793 0.0040385
2796 0.00486479
2799 0.0072725
2802 0.00737269
2805 0.00448707
2808 0.00411148
2811 0.00690738
2814 0.0120581
2817 0.0119189
2820 0.00960399
2823 0.00552962
2826 0.00210025
2829 0.00166245
2832 0.00052112
2835 0.000212822
2838 0.00128912
2841 0.00139422
2844 0.00248669
2847 0.00286878
2850 0.0041569
2853 0.00500333
2856 0.00523685
2859 0.00590874
2862 0.010189
2865 0.0091242
2868 0.00491972
2871 0.00355074
2874 0.00473861
2877 0.00489815
2880 0.0052636
2883 0.00673219
2886 0.00952556
2889 0.0115649
2892 0.0118258
2895 0.0119264
2898 0.0170131
2901 0.0224551
2904 0.0177365
2907 0.00849791
2910 0.00715767
2913 0.0062749
2916 0.00759458
2919 0.00601593
2922 0.00528682
2925 0.00446852
2928 0.00396024
2931 0.00551754
2934 0.00791906
2937 0.00552572
2940 0.00540162
2943 0.00550356
2946 0.00257161
2949 0.00338405
2952 0.00353089
2955 0.00578231
2958 0.00685375
2961 0.00520607
2964 0.00406509
2967 0.00434362
2970 0.00613086
2973 0.00696206
2976 0.00835398
2979 0.00638603
2982 0.00430742
2985 0.0026541
2988 0.00125695
2991 0.000568117
2994 0.000686052
2997 0.000162355
3000 0.00137186
3003 0.0016326
3006 0.00197624
3009 0.00191704
3012 0.00193134
3015 0.00524357
3018 0.00550698
3021 0.00530716
3024 0.00451877
3027 0.00391899
3030 0.00473625
3033 0.00570942
3036 0.00692008
3039 0.0060933
3042 0.00566642
3045 0.00408214
3048 0.00336475
3051 0.00407972
3054 0.00728702
3057 0.00983601
3060 0.0075488
3063 0.00607772
3066 0.00488556
3069 0.00653348
3072 0.00789806
3075 0.00803937
3078 0.00820563
3081 0.00725947
3084 0.00686985
3087 0.00428389
3090 0.00827569
3093 0.0116973
3096 0.00959729
3099 0.00774664
3102 0.00480071
3105 0.00491115
3108 0.00413675
3111 0.0055474
3114 0.00684835
3117 0.00734062
3120 0.00966267
3123 0.0119951
3126 0.0138032
3129 0.0120221
3132 0.0128775
3135 0.0090603
3138 0.00502315
3141 0.00145757
3144 0.00161691
3147 0.00219378
3150 0.00363799
3153 0.00273742
3156 0.00450476
3159 0.00619279
3162 0.00612222
3165 0.00699217
3168 0.00687122
3171 0.00540456
3174 0.00516847
3177 0.00611999
3180 0.00575419
3183 0.00842116
3186 0.0104825
3189 0.00966265
3192 0.00896719
3195 0.00955983
3198 0.0123735
3201 0.01355
3204 0.0128407
3207 0.0091935
3210 0.00508518
3213 0.00402507
3216 0.00247192
3219 0.00286644
3222 0.0043742
3225 0.00505629
3228 0.00284979
3231 0.000828987
3234 0.00266402
3237 0.00117192
3240 0.00228486
3243 0.00241188
3246 0.00203022
3249 0.00240478
3252 0.00319508
3255 0.00311937
3258 0.00533024
3261 0.00524688
3264 0.00422531
3267 0.00616283
3270 0.00725699
3273 0.0081958
3276 0.00807149
3279 0.00513753
3282 0.00175856
3285 0.00282864
3288 0.00111822
3291 0.000454123
3294 0.00344718
3297 0.0011342
3300 0.00119954
3303 0.000947772
3306 0.00386054
3309 0.00518084
3312 0.00488081
3315 0.00225305
3318 0.00167239
3321 0.00155031
3324 0.00344184
3327 0.00365315
3330 0.00753601
3333 0.00409534
3336 0.00580052
3339 0.00418383
3342 0.00859498
3345 0.009682
3348 0.00941515
3351 0.00520771
3354 0.00482473
3357 0.00524955
3360 0.00515383
3363 0.0058447
3366 0.00489115
3369 0.00519231
3372 0.00320976
3375 0.00308648
3378 0.00496855
3381 0.00486558
3384 0.00447427
3387 0.00695247
3390 0.00505195
3393 0.00581581
3396 0.00592203
3399 0.00438628
3402 0.00417159
3405 0.00388618
3408 0.00480169
3411 0.00225495
3414 0.00387437
3417 0.00611148
3420 0.00310348
3423 0.00395601
3426 0.00271263
3429 0.00268276
3432 0.00173966
3435 0.00531072
3438 0.00571275
3441 0.0037717
3444 0.00744201
3447 0.00393993
3450 0.0084503
3453 0.00560841
3456 0.00664618
3459 0.00616864
3462 0.00709101
3465 0.0124577
3468 0.00873058
3471 0.00625049
3474 0.00415133
3477 0.00742908
3480 0.0123161
3483 0.0121184
3486 0.0114658
3487 0.0258781