File: constrainednmf/example_data/BaTiO3_xrd_ramp/BTO_150K_tth.xy
0.000000000000000000e+00 0.000930581
3 0.000951208
6 0.00108229
9 0.00269917
12 0.00994004
15 0.0117551
18 0.011204
21 0.0105746
24 0.0108928
27 0.0108388
30 0.00886403
33 0.00378404
36 0.00270606
39 0.00270768
42 0.00288025
45 0.00286625
48 0.00284826
51 0.00279797
54 0.00281816
57 0.0028739
60 0.0029005
63 0.00296436
66 0.00301273
69 0.00304349
72 0.00309521
75 0.00315769
78 0.00325998
81 0.00335685
84 0.00344234
87 0.00352187
90 0.0034834
93 0.00344831
96 0.00341929
99 0.0033903
102 0.00337797
105 0.00337672
108 0.00338799
111 0.00339484
114 0.00342136
117 0.0034275
120 0.00339846
123 0.00342143
126 0.00328639
129 0.00340199
132 0.0033874
135 0.00337768
138 0.00335117
141 0.00337875
144 0.00337144
147 0.00334482
150 0.00334533
153 0.00333272
156 0.00330845
159 0.00336315
162 0.00334573
165 0.00333027
168 0.00331756
171 0.00325755
174 0.00320826
177 0.00321949
180 0.00317449
183 0.0031774
186 0.00313231
189 0.00315737
192 0.00311112
195 0.00308872
198 0.00310177
201 0.00305752
204 0.00299196
207 0.00290367
210 0.00297158
213 0.00297866
216 0.00290312
219 0.00292043
222 0.00285233
225 0.00289553
228 0.0029212
231 0.00290154
234 0.00292078
237 0.00288214
240 0.0028885
243 0.00279469
246 0.00289521
249 0.00291692
252 0.00290046
255 0.00285747
258 0.00292993
261 0.002876
264 0.00296038
267 0.00299078
270 0.00294318
273 0.00295082
276 0.00295287
279 0.00303523
282 0.00316492
285 0.00315257
288 0.0032596
291 0.00317821
294 0.00329387
297 0.00312944
300 0.00304662
303 0.00287937
306 0.00276103
309 0.00281569
312 0.00282975
315 0.00288065
318 0.00295282
321 0.0031767
324 0.00362638
327 0.00579383
330 0.0210695
333 0.110521
336 0.0672908
339 0.0111417
342 0.006786
345 0.0062358
348 0.00271059
351 0.0022868
354 0.0022177
357 0.0028363
360 0.00479396
363 0.00464901
366 0.00316283
369 0.00195803
372 0.00164151
375 0.00154238
378 0.00154878
381 0.00160092
384 0.00178692
387 0.00529442
390 0.00631503
393 0.00171604
396 0.00157213
399 0.00155111
402 0.00148874
405 0.001437
408 0.00148447
411 0.00153249
414 0.00177801
417 0.00189741
420 0.00189602
423 0.00184632
426 0.00206889
429 0.00167185
432 0.00171069
435 0.00171353
438 0.00195111
441 0.00200996
444 0.00238907
447 0.00278018
450 0.00341457
453 0.00399286
456 0.00472905
459 0.00623034
462 0.00905253
465 0.0171609
468 0.0579282
471 0.437027
474 0.940703
477 0.161771
480 0.0273548
483 0.0112264
486 0.00681726
489 0.00504837
492 0.00380663
495 0.00285402
498 0.00244679
501 0.00243252
504 0.00219453
507 0.002203
510 0.00262915
513 0.00279965
516 0.00239061
519 0.00149975
522 0.000916607
525 0.000750923
528 0.000569614
531 0.00062997
534 0.000604317
537 0.000675364
540 0.000602753
543 0.000732206
546 0.000626673
549 0.000719269
552 0.000927204
555 0.000703627
558 0.00101015
561 0.00139243
564 0.00178877
567 0.00242212
570 0.00367604
573 0.00824306
576 0.0443904
579 0.284047
582 0.19686
585 0.0213247
588 0.00602444
591 0.00337974
594 0.00294979
597 0.00250822
600 0.00159467
603 0.00138784
606 0.00118688
609 0.00101383
612 0.00107518
615 0.0012082
618 0.00120396
621 0.00156351
624 0.00243986
627 0.00255999
630 0.00225395
633 0.00210823
636 0.00227245
639 0.00236712
642 0.00229535
645 0.0031632
648 0.0096841
651 0.00420425
654 0.00476317
657 0.00739969
660 0.0126914
663 0.029024
666 0.108391
669 0.376976
672 0.267286
675 0.0730617
678 0.0212615
681 0.00877368
684 0.00533372
687 0.00473489
690 0.00393511
693 0.00374625
696 0.00362388
699 0.00808608
702 0.00299038
705 0.00164116
708 0.00168102
711 0.00236469
714 0.00148901
717 0.00118531
720 0.00126022
723 0.00148699
726 0.00148236
729 0.00156757
732 0.00165581
735 0.00224138
738 0.00318816
741 0.00622476
744 0.0196415
747 0.0860404
750 0.140284
753 0.0434369
756 0.0101232
759 0.00349903
762 0.00204289
765 0.00153848
768 0.0012589
771 0.000992497
774 0.00130052
777 0.00181921
780 0.00208564
783 0.00153409
786 0.00159635
789 0.00167937
792 0.00191242
795 0.00216501
798 0.00283927
801 0.00338685
804 0.00462262
807 0.00677274
810 0.0111923
813 0.0243606
816 0.0913233
819 0.402305
822 0.583942
825 0.14538
828 0.0307961
831 0.0117783
834 0.00671511
837 0.00451757
840 0.00339216
843 0.0024686
846 0.00204808
849 0.00159138
852 0.00128339
855 0.00109216
858 0.00110372
861 0.00129962
864 0.00119826
867 0.000948104
870 0.00105801
873 0.00110361
876 0.000925578
879 0.00242987
882 0.00284606
885 0.00120888
888 0.00139568
891 0.00131611
894 0.00111832
897 0.000888495
900 0.000825602
903 0.000910546
906 0.00068549
909 0.000693616
912 0.00100942
915 0.000955066
918 0.000934137
921 0.00124149
924 0.00135751
927 0.00203755
930 0.0028486
933 0.00348175
936 0.00574843
939 0.0120675
942 0.0367722
945 0.146871
948 0.353052
951 0.201963
954 0.0387071
957 0.0121299
960 0.00638909
963 0.00386277
966 0.00283576
969 0.00242241
972 0.00208778
975 0.00239019
978 0.00451153
981 0.00322905
984 0.00267812
987 0.00208042
990 0.00222748
993 0.00262558
996 0.00415907
999 0.010069
1002 0.0371063
1005 0.0973368
1008 0.078289
1011 0.0173482
1014 0.00591046
1017 0.00293974
1020 0.00214311
1023 0.00149031
1026 0.00135245
1029 0.00160205
1032 0.00172477
1035 0.00185808
1038 0.002385
1041 0.00283661
1044 0.00445971
1047 0.00706369
1050 0.0130894
1053 0.0309279
1056 0.0941114
1059 0.250294
1062 0.231773
1065 0.0898583
1068 0.0337152
1071 0.0130554
1074 0.00649853
1077 0.00418442
1080 0.00304541
1083 0.00229801
1086 0.00235698
1089 0.00237279
1092 0.0026603
1095 0.00436852
1098 0.0041855
1101 0.00601943
1104 0.012033
1107 0.0352284
1110 0.106358
1113 0.143151
1116 0.065149
1119 0.0216605
1122 0.00763463
1125 0.00343657
1128 0.00183706
1131 0.00144232
1134 0.00106359
1137 0.000902279
1140 0.00109847
1143 0.00117488
1146 0.00177189
1149 0.00231172
1152 0.00413664
1155 0.0104765
1158 0.0464031
1161 0.118652
1164 0.115341
1167 0.018947
1170 0.00503298
1173 0.0024048
1176 0.00123488
1179 0.00121306
1182 0.000873491
1185 0.000827331
1188 0.000870476
1191 0.000821268
1194 0.00139236
1197 0.00194176
1200 0.00365016
1203 0.00929875
1206 0.0269298
1209 0.0512634
1212 0.0372558
1215 0.0118713
1218 0.00452782
1221 0.00231483
1224 0.00223776
1227 0.00201416
1230 0.0025312
1233 0.00286915
1236 0.0040503
1239 0.00566991
1242 0.00905863
1245 0.0168071
1248 0.0433599
1251 0.140538
1254 0.323495
1257 0.340513
1260 0.112124
1263 0.0308773
1266 0.0125786
1269 0.00674408
1272 0.00431398
1275 0.00292536
1278 0.00200905
1281 0.0015567
1284 0.00119996
1287 0.00110229
1290 0.000852167
1293 0.000772939
1296 0.000662196
1299 0.000579927
1302 0.000578942
1305 0.000587523
1308 0.000740478
1311 0.000626252
1314 0.000685512
1317 0.000631346
1320 0.000873626
1323 0.00110115
1326 0.00163008
1329 0.00293665
1332 0.00447239
1335 0.010012
1338 0.0244594
1341 0.047491
1344 0.0393181
1347 0.0184855
1350 0.0101203
1353 0.00563956
1356 0.00375078
1359 0.00267916
1362 0.00218558
1365 0.0021187
1368 0.00226402
1371 0.00347443
1374 0.00612824
1377 0.0148313
1380 0.0407836
1383 0.0698297
1386 0.0571201
1389 0.0190426
1392 0.00840621
1395 0.00479285
1398 0.00348246
1401 0.00329584
1404 0.0036263
1407 0.00457757
1410 0.00691309
1413 0.0120522
1416 0.0257589
1419 0.0666742
1422 0.14538
1425 0.166555
1428 0.0835117
1431 0.0326586
1434 0.0152953
1437 0.00805056
1440 0.00541728
1443 0.00411231
1446 0.00383073
1449 0.00366885
1452 0.00525731
1455 0.00951968
1458 0.0240193
1461 0.0518044
1464 0.0712669
1467 0.0340454
1470 0.00992314
1473 0.00492475
1476 0.00368494
1479 0.00367045
1482 0.00423169
1485 0.00546841
1488 0.00782568
1491 0.0132328
1494 0.028643
1497 0.071539
1500 0.13421
1503 0.127074
1506 0.0617834
1509 0.0269435
1512 0.0124294
1515 0.00711742
1518 0.0050588
1521 0.00438911
1524 0.00418866
1527 0.00539446
1530 0.00911605
1533 0.0208884
1536 0.0428495
1539 0.0527732
1542 0.0321784
1545 0.0139417
1548 0.00640816
1551 0.00403205
1554 0.0030725
1557 0.00302179
1560 0.00335371
1563 0.00452061
1566 0.00918999
1569 0.0271307
1572 0.0577683
1575 0.101956
1578 0.0689041
1581 0.0166732
1584 0.00713096
1587 0.00434064
1590 0.00283472
1593 0.00253111
1596 0.00219542
1599 0.0017258
1602 0.00184519
1605 0.00154694
1608 0.00153549
1611 0.00167559
1614 0.0016464
1617 0.00213301
1620 0.00226401
1623 0.00259791
1626 0.00265131
1629 0.00350053
1632 0.00546417
1635 0.00947615
1638 0.0231026
1641 0.0563877
1644 0.0971643
1647 0.108963
1650 0.0481656
1653 0.0176007
1656 0.00806366
1659 0.00544161
1662 0.00411939
1665 0.00394986
1668 0.0046493
1671 0.00658746
1674 0.0125256
1677 0.0225041
1680 0.0257597
1683 0.0170736
1686 0.00841983
1689 0.00560267
1692 0.00536826
1695 0.00651783
1698 0.00944415
1701 0.015541
1704 0.0309168
1707 0.0710283
1710 0.14161
1713 0.18703
1716 0.132865
1719 0.0527392
1722 0.0240421
1725 0.0139742
1728 0.00853685
1731 0.00700767
1734 0.00713995
1737 0.0108791
1740 0.0212634
1743 0.0365357
1746 0.0460408
1749 0.0274042
1752 0.01189
1755 0.00726396
1758 0.00452363
1761 0.00286925
1764 0.00184771
1767 0.0013527
1770 0.000936193
1773 0.00091852
1776 0.000749244
1779 0.00107501
1782 0.000761808
1785 0.00109357
1788 0.00143129
1791 0.00163184
1794 0.00236788
1797 0.00345632
1800 0.00725997
1803 0.0178275
1806 0.0333319
1809 0.0464284
1812 0.039566
1815 0.0155357
1818 0.00780273
1821 0.00555926
1824 0.00530653
1827 0.00709182
1830 0.0127471
1833 0.0261904
1836 0.0550644
1839 0.086506
1842 0.0830326
1845 0.047691
1848 0.0238657
1851 0.0126339
1854 0.00637671
1857 0.0032941
1860 0.00215071
1863 0.00147165
1866 0.00101661
1869 0.000795302
1872 0.000551763
1875 0.000840162
1878 0.000526268
1881 0.000866569
1884 0.000609715
1887 0.00147989
1890 0.0028376
1893 0.00624809
1896 0.0137199
1899 0.0251513
1902 0.0320132
1905 0.0229918
1908 0.00831185
1911 0.00344276
1914 0.00225897
1917 0.00244675
1920 0.00355746
1923 0.00728609
1926 0.0148237
1929 0.0215526
1932 0.0241454
1935 0.0145788
1938 0.0065319
1941 0.00383502
1944 0.0039458
1947 0.00549411
1950 0.0103171
1953 0.0247011
1956 0.0477688
1959 0.0711748
1962 0.0830302
1965 0.0374023
1968 0.0144184
1971 0.00732668
1974 0.00569994
1977 0.00651121
1980 0.010333
1983 0.0198952
1986 0.0337805
1989 0.0411087
1992 0.031372
1995 0.0156206
1998 0.00779596
2001 0.00531453
2004 0.00535444
2007 0.00853803
2010 0.0188744
2013 0.0352638
2016 0.0549636
2019 0.0686288
2022 0.0334019
2025 0.0115344
2028 0.00612489
2031 0.00411456
2034 0.00338644
2037 0.00423351
2040 0.00648023
2043 0.00927451
2046 0.00948569
2049 0.00696265
2052 0.00489936
2055 0.00502868
2058 0.00656433
2061 0.0102633
2064 0.0206928
2067 0.0425644
2070 0.0693906
2073 0.0906137
2076 0.0727025
2079 0.0341786
2082 0.0161897
2085 0.00889901
2088 0.00518315
2091 0.00300405
2094 0.00204227
2097 0.00140467
2100 0.000961931
2103 0.0011103
2106 0.00134019
2109 0.00185993
2112 0.00291583
2115 0.00440056
2118 0.00880987
2121 0.0169626
2124 0.0294558
2127 0.0351259
2130 0.0275602
2133 0.0166327
2136 0.010618
2139 0.00781667
2142 0.00757133
2145 0.0106053
2148 0.0189835
2151 0.0268052
2154 0.0318982
2157 0.0250835
2160 0.011987
2163 0.00687052
2166 0.00680653
2169 0.00870107
2172 0.0148213
2175 0.0286987
2178 0.0429536
2181 0.052518
2184 0.0399263
2187 0.0166261
2190 0.00707085
2193 0.00459543
2196 0.00460832
2199 0.00716562
2202 0.0103316
2205 0.0137265
2208 0.016033
2211 0.00850525
2214 0.00401988
2217 0.00355536
2220 0.00461073
2223 0.00881301
2226 0.0159699
2229 0.0253321
2232 0.0305399
2235 0.0239273
2238 0.0137451
2241 0.00848741
2244 0.00637613
2247 0.00628611
2250 0.0103281
2253 0.0151362
2256 0.0189521
2259 0.0204735
2262 0.012238
2265 0.00655571
2268 0.00538712
2271 0.00718548
2274 0.0127724
2277 0.0235888
2280 0.0349062
2283 0.0387949
2286 0.029065
2289 0.0156656
2292 0.00847019
2295 0.00459975
2298 0.00272017
2301 0.00146849
2304 0.000814968
2307 0.000521182
2310 0.000485539
2313 0.000543776
2316 0.000861446
2319 0.000787287
2322 0.00178964
2325 0.00417161
2328 0.00544278
2331 0.00922361
2334 0.0143112
2337 0.00564293
2340 0.00330754
2343 0.00304792
2346 0.0043602
2349 0.00729368
2352 0.0107196
2355 0.0132757
2358 0.0131961
2361 0.00950739
2364 0.00787772
2367 0.00877927
2370 0.014032
2373 0.0271184
2376 0.0406962
2379 0.0559627
2382 0.0705812
2385 0.0425861
2388 0.0185343
2391 0.0114551
2394 0.0108994
2397 0.0129899
2400 0.0175072
2403 0.0202231
2406 0.0194197
2409 0.0139203
2412 0.00842318
2415 0.00758217
2418 0.00788236
2421 0.0119474
2424 0.0181569
2427 0.0230143
2430 0.0234517
2433 0.0169446
2436 0.0105235
2439 0.0076501
2442 0.0081775
2445 0.0110987
2448 0.0149211
2451 0.0164272
2454 0.0151047
2457 0.0114348
2460 0.0106421
2463 0.0133876
2466 0.021997
2469 0.0360521
2472 0.0498714
2475 0.0595087
2478 0.0496581
2481 0.0268238
2484 0.0146908
2487 0.0093492
2490 0.00650957
2493 0.00494666
2496 0.00372791
2499 0.00341762
2502 0.00321811
2505 0.00397928
2508 0.00608778
2511 0.0111591
2514 0.0189186
2517 0.0282544
2520 0.0388078
2523 0.0410013
2526 0.0245332
2529 0.0123424
2532 0.00809092
2535 0.00810979
2538 0.00841667
2541 0.0089269
2544 0.0107999
2547 0.00772659
2550 0.00458984
2553 0.00397689
2556 0.00525056
2559 0.00825456
2562 0.0115504
2565 0.01286
2568 0.011592
2571 0.009128
2574 0.00734876
2577 0.00806937
2580 0.0119748
2583 0.0165142
2586 0.0196143
2589 0.0218706
2592 0.0147013
2595 0.00730229
2598 0.00477381
2601 0.00294653
2604 0.00186113
2607 0.00159227
2610 0.00121084
2613 0.0013998
2616 0.00217836
2619 0.00325483
2622 0.00406316
2625 0.00757928
2628 0.0102182
2631 0.012541
2634 0.0127857
2637 0.00999692
2640 0.00902332
2643 0.0126597
2646 0.0213754
2649 0.0320843
2652 0.0401711
2655 0.0428598
2658 0.0305946
2661 0.0157985
2664 0.00819547
2667 0.00415001
2670 0.00229041
2673 0.00178319
2676 0.00136051
2679 0.00124099
2682 0.000965067
2685 0.000768673
2688 0.00171654
2691 0.00201289
2694 0.00304052
2697 0.00371266
2700 0.00284462
2703 0.00295981
2706 0.00409654
2709 0.00680423
2712 0.00996828
2715 0.0123275
2718 0.0135316
2721 0.0121396
2724 0.0102633
2727 0.0107512
2730 0.0162278
2733 0.0244076
2736 0.0315839
2739 0.0389128
2742 0.0326432
2745 0.0177461
2748 0.0099936
2751 0.00747542
2754 0.00754302
2757 0.00747024
2760 0.00766804
2763 0.00644832
2766 0.00564343
2769 0.00719194
2772 0.0106791
2775 0.0146079
2778 0.0204865
2781 0.0262683
2784 0.0209197
2787 0.011843
2790 0.00843806
2793 0.0092015
2796 0.0108701
2799 0.0122088
2802 0.0106176
2805 0.00805698
2808 0.00660945
2811 0.00647844
2814 0.00995428
2817 0.0109581
2820 0.0156288
2823 0.020313
2826 0.0130529
2829 0.00410431
2832 0.00154795
2835 0.000970339
2838 0.00044643
2841 0.000516582
2844 0.000830643
2847 0.00196613
2850 0.0023804
2853 0.00510025
2856 0.008426
2859 0.0124085
2862 0.0142247
2865 0.0125406
2868 0.0089265
2871 0.00549384
2874 0.00577775
2877 0.0064234
2880 0.00701214
2883 0.00707323
2886 0.00722709
2889 0.00862222
2892 0.0129628
2895 0.0216318
2898 0.0285561
2901 0.0348986
2904 0.0338174
2907 0.0239844
2910 0.0149513
2913 0.0117419
2916 0.0117992
2919 0.0111399
2922 0.0119963
2925 0.00948529
2928 0.00623764
2931 0.00494344
2934 0.00563533
2937 0.00753261
2940 0.00929229
2943 0.0115593
2946 0.0104815
2949 0.00591713
2952 0.00638353
2955 0.00689134
2958 0.00806752
2961 0.0106467
2964 0.00933346
2967 0.00590845
2970 0.00691887
2973 0.00817567
2976 0.0105272
2979 0.0125003
2982 0.0134932
2985 0.0107142
2988 0.00507309
2991 0.0035293
2994 0.00114882
2997 0.00124242
3000 0.000786662
3003 0.000596235
3006 0.00263721
3009 0.00322315
3012 0.00481332
3015 0.00715573
3018 0.0081934
3021 0.00850237
3024 0.00765633
3027 0.00754535
3030 0.00847772
3033 0.00904269
3036 0.00987994
3039 0.0116812
3042 0.00845496
3045 0.00798042
3048 0.008304
3051 0.0097694
3054 0.0115013
3057 0.0126438
3060 0.0101733
3063 0.00934593
3066 0.00915187
3069 0.0106714
3072 0.0113499
3075 0.0125351
3078 0.012128
3081 0.0100611
3084 0.00865776
3087 0.0110844
3090 0.0133501
3093 0.0162894
3096 0.0170292
3099 0.0124015
3102 0.0105985
3105 0.00810523
3108 0.00835471
3111 0.00852387
3114 0.00898681
3117 0.0100532
3120 0.0113908
3123 0.0145434
3126 0.018852
3129 0.0237764
3132 0.0284281
3135 0.0239853
3138 0.0140643
3141 0.00843661
3144 0.00621961
3147 0.00497463
3150 0.004716
3153 0.00389485
3156 0.00405775
3159 0.00515791
3162 0.00504323
3165 0.00612996
3168 0.0113179
3171 0.0126255
3174 0.00966541
3177 0.00959593
3180 0.0111504
3183 0.0121601
3186 0.0135625
3189 0.0131145
3192 0.0135491
3195 0.0138639
3198 0.0176329
3201 0.0198778
3204 0.024488
3207 0.0255322
3210 0.0189147
3213 0.0126642
3216 0.00850887
3219 0.00982603
3222 0.00652881
3225 0.00640255
3228 0.00427801
3231 0.00300977
3234 0.00201769
3237 0.00229224
3240 0.00103503
3243 0.00142733
3246 0.00200254
3249 0.00227464
3252 0.00363117
3255 0.00363111
3258 0.00320509
3261 0.00681626
3264 0.00582408
3267 0.00873688
3270 0.0114549
3273 0.0124939
3276 0.0168776
3279 0.0139097
3282 0.00955421
3285 0.00549229
3288 0.00215648
3291 0.00108382
3294 0.00116978
3297 0.000863496
3300 0.000615673
3303 0.00223751
3306 0.00191843
3309 0.00358801
3312 0.00508517
3315 0.00465226
3318 0.00265032
3321 0.00205505
3324 0.002589
3327 0.00417615
3330 0.0042646
3333 0.00461816
3336 0.00784891
3339 0.0103538
3342 0.0127364
3345 0.0136537
3348 0.0159353
3351 0.013046
3354 0.0101201
3357 0.00813837
3360 0.00885268
3363 0.00712689
3366 0.00686406
3369 0.00680267
3372 0.00422545
3375 0.00454929
3378 0.0053206
3381 0.00583665
3384 0.00899016
3387 0.0075295
3390 0.00920051
3393 0.00999669
3396 0.00776752
3399 0.00965854
3402 0.00750874
3405 0.00739568
3408 0.00770832
3411 0.00754928
3414 0.00875368
3417 0.00820358
3420 0.0055712
3423 0.00347726
3426 0.00381786
3429 0.00364419
3432 0.00724083
3435 0.00888712
3438 0.00962459
3441 0.00945686
3444 0.0143384
3447 0.0191402
3450 0.0203321
3453 0.0199196
3456 0.0172101
3459 0.0178354
3462 0.0154983
3465 0.0144878
3468 0.0178501
3471 0.0166015
3474 0.0186927
3477 0.0204443
3480 0.0236043
3483 0.0313737
3486 0.032912
3487 7.48528e-05