File: constrainednmf/example_data/BaTiO3_xrd_ramp/BTO_195K_tth.xy
0.000000000000000000e+00 9.09394e-05
3 0.000260459
6 0.000537448
9 0.00232406
12 0.0102327
15 0.0119889
18 0.0114756
21 0.0108996
24 0.0112913
27 0.0113422
30 0.00933312
33 0.00407076
36 0.00306864
39 0.00313048
42 0.00326448
45 0.00329063
48 0.00324372
51 0.00323933
54 0.003324
57 0.00334401
60 0.00342011
63 0.00343523
66 0.00348057
69 0.00346672
72 0.00353905
75 0.00361725
78 0.00369068
81 0.00374884
84 0.00381512
87 0.00383807
90 0.00377732
93 0.00372046
96 0.00366556
99 0.00359503
102 0.00352396
105 0.0035575
108 0.00352714
111 0.0034702
114 0.00348002
117 0.00340383
120 0.00333223
123 0.00330693
126 0.00320134
129 0.00322441
132 0.00322109
135 0.0031174
138 0.00316123
141 0.00307247
144 0.00306359
147 0.00302813
150 0.00295062
153 0.00284634
156 0.0028735
159 0.0027768
162 0.00274845
165 0.00269093
168 0.00262035
171 0.00261356
174 0.00252023
177 0.00249052
180 0.00245681
183 0.00238326
186 0.00231769
189 0.00229531
192 0.00227484
195 0.0021797
198 0.00221864
201 0.00213924
204 0.00211928
207 0.00200821
210 0.00197611
213 0.0019621
216 0.00197611
219 0.00198777
222 0.00190652
225 0.0018633
228 0.00186859
231 0.00188896
234 0.0018334
237 0.00182417
240 0.00183507
243 0.00180611
246 0.00176339
249 0.00181828
252 0.00183768
255 0.00181235
258 0.00181014
261 0.00181607
264 0.00183588
267 0.00183251
270 0.00187704
273 0.00187327
276 0.00192537
279 0.00199369
282 0.00212295
285 0.00216762
288 0.00219472
291 0.00225637
294 0.00228448
297 0.00213555
300 0.00205017
303 0.00193095
306 0.00173376
309 0.00177443
312 0.0018884
315 0.00195911
318 0.00185885
321 0.00229585
324 0.00275612
327 0.00516163
330 0.0237446
333 0.11011
336 0.0674042
339 0.0108679
342 0.00832498
345 0.00475279
348 0.00179195
351 0.00132022
354 0.00139312
357 0.00204311
360 0.00416475
363 0.00374016
366 0.00228874
369 0.00115873
372 0.000991241
375 0.000848893
378 0.000890584
381 0.000942119
384 0.00152023
387 0.00453636
390 0.00463438
393 0.000995784
396 0.00100536
399 0.000912734
402 0.000902902
405 0.00090938
408 0.000960688
411 0.00110794
414 0.00121493
417 0.00146085
420 0.00137188
423 0.00138706
426 0.0014826
429 0.00129515
432 0.0012783
435 0.0013794
438 0.0015155
441 0.0016684
444 0.00200747
447 0.00227529
450 0.00289604
453 0.00348869
456 0.00448725
459 0.00598507
462 0.00909211
465 0.0177979
468 0.0655769
471 0.481317
474 0.931103
477 0.158302
480 0.0265528
483 0.0108882
486 0.0066599
489 0.00456054
492 0.00341279
495 0.00255936
498 0.00205448
501 0.00235343
504 0.00167517
507 0.0019267
510 0.00238608
513 0.00246893
516 0.00188191
519 0.00107838
522 0.000609491
525 0.00047009
528 0.000417408
531 0.000231693
534 0.00012555
537 0.000169252
540 0.000148664
543 0.000193867
546 0.000165408
549 0.00041355
552 0.000564405
555 0.000435372
558 0.00069641
561 0.00108824
564 0.00145575
567 0.0021386
570 0.00342124
573 0.00822748
576 0.0472708
579 0.306476
582 0.1839
585 0.0194924
588 0.0055081
591 0.00313063
594 0.00262579
597 0.00168755
600 0.00120122
603 0.00110567
606 0.000849495
609 0.000718163
612 0.000624301
615 0.000680437
618 0.000829471
621 0.00112863
624 0.00194385
627 0.00208496
630 0.0016933
633 0.00167353
636 0.00169606
639 0.00180728
642 0.00176877
645 0.00347632
648 0.00749502
651 0.00338746
654 0.00471086
657 0.00713725
660 0.0134056
663 0.0340163
666 0.144453
669 0.355689
672 0.23821
675 0.0965704
678 0.0213006
681 0.00812116
684 0.00476201
687 0.00408966
690 0.0032263
693 0.0033097
696 0.00325901
699 0.00678932
702 0.0015828
705 0.000929201
708 0.0009038
711 0.00202566
714 0.000730888
717 0.000465915
720 0.000429497
723 0.000812266
726 0.000782739
729 0.000763493
732 0.000738544
735 0.00151963
738 0.0025605
741 0.0061431
744 0.0241834
747 0.095817
750 0.120892
753 0.0483912
756 0.00933537
759 0.00253681
762 0.0012524
765 0.000582231
768 0.000515481
771 0.000364189
774 0.000606492
777 0.00185876
780 0.000828253
783 0.000654935
786 0.000629892
789 0.000879446
792 0.00102341
795 0.00155812
798 0.00214069
801 0.00266969
804 0.00410628
807 0.00611992
810 0.0110266
813 0.0263998
816 0.107872
819 0.441218
822 0.531997
825 0.150761
828 0.0289118
831 0.0105271
834 0.00578024
837 0.00378436
840 0.00260583
843 0.00178151
846 0.00131111
849 0.00100324
852 0.000734593
855 0.0007451
858 0.000434745
861 0.000691401
864 0.000507272
867 0.000295994
870 0.000341424
873 0.00043105
876 0.000644781
879 0.00285579
882 0.000902223
885 0.000696463
888 0.000662806
891 0.000464531
894 0.000306653
897 0.000234013
900 0.00010201
903 0.000102495
906 0.000192039
909 0.0001911
912 0.000340827
915 0.00032919
918 0.000480474
921 0.000647045
924 0.000945389
927 0.00164293
930 0.00222286
933 0.00339318
936 0.00591702
939 0.0132029
942 0.0474198
945 0.159698
948 0.34392
951 0.198006
954 0.0362352
957 0.0113699
960 0.00545215
963 0.00350497
966 0.00230182
969 0.00208226
972 0.00170341
975 0.00214229
978 0.00315447
981 0.00275333
984 0.00193268
987 0.00192026
990 0.00188474
993 0.0027146
996 0.00436635
999 0.0114971
1002 0.0434284
1005 0.0967513
1008 0.0713552
1011 0.0176045
1014 0.00589362
1017 0.00252186
1020 0.00163623
1023 0.00141194
1026 0.00127873
1029 0.00133429
1032 0.00136004
1035 0.00196809
1038 0.00234642
1041 0.00316154
1044 0.00452188
1047 0.00769029
1050 0.014908
1053 0.0402753
1056 0.127998
1059 0.236122
1062 0.17867
1065 0.111905
1068 0.0405272
1071 0.0127059
1074 0.00618294
1077 0.00388733
1080 0.00299
1083 0.00272376
1086 0.00237768
1089 0.00231717
1092 0.00291262
1095 0.00433163
1098 0.0040838
1101 0.00619471
1104 0.0143579
1107 0.0473824
1110 0.114466
1113 0.113997
1116 0.0696691
1119 0.0260484
1122 0.00733957
1125 0.00296563
1128 0.00172511
1131 0.00134958
1134 0.00103512
1137 0.000951283
1140 0.000971457
1143 0.00161205
1146 0.00168231
1149 0.00250179
1152 0.00412847
1155 0.0108821
1158 0.0502647
1161 0.133283
1164 0.102288
1167 0.0159638
1170 0.00446834
1173 0.00229257
1176 0.00128301
1179 0.00090953
1182 0.000832047
1185 0.000753877
1188 0.000707044
1191 0.000827258
1194 0.00138643
1197 0.00237469
1200 0.00441361
1203 0.0121122
1206 0.0288075
1209 0.0472128
1212 0.0347181
1215 0.013034
1218 0.00416828
1221 0.00274539
1224 0.00198348
1227 0.00217633
1230 0.0026814
1233 0.00296283
1236 0.0038923
1239 0.00604827
1242 0.00958151
1245 0.0183869
1248 0.0540312
1251 0.163671
1254 0.323573
1257 0.303243
1260 0.117994
1263 0.0293634
1266 0.0114873
1269 0.00605547
1272 0.00393844
1275 0.00239749
1278 0.00187686
1281 0.00129932
1284 0.000965
1287 0.000857647
1290 0.000615573
1293 0.000763282
1296 0.000373536
1299 0.000287225
1302 8.93618e-05
1305 0.000428721
1308 0.000495756
1311 0.000460055
1314 0.00033723
1317 0.000594799
1320 0.000626851
1323 0.00098217
1326 0.00175167
1329 0.00232117
1332 0.00541291
1335 0.0141176
1338 0.0319742
1341 0.037358
1344 0.0269001
1347 0.0189666
1350 0.0155632
1353 0.00624215
1356 0.00283762
1359 0.00197972
1362 0.00151998
1365 0.00153311
1368 0.00215725
1371 0.00338081
1374 0.00671206
1377 0.0185018
1380 0.046062
1383 0.0628363
1386 0.0466505
1389 0.0197263
1392 0.0102199
1395 0.00418563
1398 0.00258457
1401 0.0027158
1404 0.00308366
1407 0.00398977
1410 0.00682234
1413 0.0136204
1416 0.0352428
1419 0.0837814
1422 0.136003
1425 0.135096
1428 0.0793127
1431 0.0433357
1434 0.0154272
1437 0.00682681
1440 0.00423437
1443 0.00332842
1446 0.00279574
1449 0.00294225
1452 0.00471435
1455 0.0113081
1458 0.0255385
1461 0.049623
1464 0.0689109
1467 0.0312995
1470 0.00831151
1473 0.00373617
1476 0.00279037
1479 0.00267359
1482 0.00356652
1485 0.00481464
1488 0.00761317
1491 0.0156606
1494 0.038767
1497 0.0822838
1500 0.121882
1503 0.097457
1506 0.0675106
1509 0.0326838
1512 0.0112933
1515 0.00541084
1518 0.00379696
1521 0.00301576
1524 0.00332831
1527 0.00514346
1530 0.0105339
1533 0.0246262
1536 0.0414599
1539 0.0409066
1542 0.0282235
1545 0.0160383
1548 0.00549432
1551 0.00267709
1554 0.00183068
1557 0.00221975
1560 0.00226754
1563 0.00352108
1566 0.00883655
1569 0.0287062
1572 0.0618241
1575 0.103359
1578 0.0585874
1581 0.0134364
1584 0.00493751
1587 0.00279092
1590 0.00163396
1593 0.00133422
1596 0.00117416
1599 0.00103951
1602 0.000828147
1605 0.000886004
1608 0.00045679
1611 0.000753817
1614 0.000571325
1617 0.000967514
1620 0.00140785
1623 0.0011657
1626 0.00162024
1629 0.0026199
1632 0.00441271
1635 0.0100122
1638 0.0277706
1641 0.0637813
1644 0.0953556
1647 0.0884706
1650 0.0502472
1653 0.0172914
1656 0.00690552
1659 0.00387695
1662 0.00315546
1665 0.00295994
1668 0.00433115
1671 0.00759049
1674 0.0130111
1677 0.0199599
1680 0.0214213
1683 0.0154791
1686 0.00780574
1689 0.00574372
1692 0.00471983
1695 0.00593825
1698 0.00943973
1701 0.0183352
1704 0.0426474
1707 0.0846852
1710 0.136233
1713 0.158476
1716 0.115312
1719 0.0556323
1722 0.0295465
1725 0.0140462
1728 0.00779226
1731 0.0060896
1734 0.00707902
1737 0.0127182
1740 0.025659
1743 0.0347819
1746 0.0351596
1749 0.0209061
1752 0.0131281
1755 0.00954089
1758 0.00378731
1761 0.0016455
1764 0.00104566
1767 0.00081854
1770 0.000619593
1773 0.000378511
1776 3.9934e-05
1779 0.000282294
1782 0.000343805
1785 0.000458673
1788 0.000656288
1791 0.00118635
1794 0.00196583
1797 0.00361322
1800 0.00833951
1803 0.0205578
1806 0.0329424
1809 0.0419434
1812 0.0327512
1815 0.0154774
1818 0.00851912
1821 0.0055155
1824 0.00534158
1827 0.00807267
1830 0.0166759
1833 0.0358514
1836 0.0627321
1839 0.0734109
1842 0.0585777
1845 0.0428738
1848 0.0330115
1851 0.014769
1854 0.00614354
1857 0.00295515
1860 0.00175195
1863 0.00113185
1866 0.00117477
1869 0.000983632
1872 0.000462171
1875 0.000310796
1878 0.00077347
1881 0.000338412
1884 0.000991064
1887 0.00133147
1890 0.00395363
1893 0.00800409
1896 0.0137
1899 0.0237109
1902 0.0316008
1905 0.0219106
1908 0.00796023
1911 0.00356471
1914 0.00277534
1917 0.00279575
1920 0.00488389
1923 0.00945114
1926 0.0147727
1929 0.0203312
1932 0.021137
1935 0.014154
1938 0.00779868
1941 0.00442154
1944 0.00481404
1947 0.00673763
1950 0.0134694
1953 0.028159
1956 0.0510649
1959 0.0717718
1962 0.0700254
1965 0.0354623
1968 0.016657
1971 0.0082075
1974 0.00669607
1977 0.00826516
1980 0.0142747
1983 0.0221268
1986 0.0335393
1989 0.0350485
1992 0.0272876
1995 0.0193106
1998 0.00946002
2001 0.00602626
2004 0.00694789
2007 0.011877
2010 0.0235324
2013 0.0362938
2016 0.0563575
2019 0.0604068
2022 0.0297205
2025 0.0120773
2028 0.00813684
2031 0.00581438
2034 0.00526207
2037 0.00656262
2040 0.00831377
2043 0.00844749
2046 0.00736128
2049 0.00630889
2052 0.00599153
2055 0.00698826
2058 0.00890812
2061 0.0135316
2064 0.029087
2067 0.0508034
2070 0.0682535
2073 0.0742924
2076 0.057314
2079 0.0367975
2082 0.0202895
2085 0.0116533
2088 0.00618151
2091 0.00391284
2094 0.0028296
2097 0.00191103
2100 0.002315
2103 0.00178749
2106 0.00225388
2109 0.00261927
2112 0.00398506
2115 0.00721887
2118 0.0135226
2121 0.022638
2124 0.0277449
2127 0.0255422
2130 0.0198303
2133 0.0164288
2136 0.0156138
2139 0.0120788
2142 0.0100338
2145 0.0137378
2148 0.020709
2151 0.0257932
2154 0.0280148
2157 0.0207435
2160 0.0119422
2163 0.00936954
2166 0.00858585
2169 0.0123865
2172 0.0175095
2175 0.0273844
2178 0.0421576
2181 0.0483168
2184 0.0363704
2187 0.0169052
2190 0.00686739
2193 0.00434489
2196 0.00512969
2199 0.00842502
2202 0.0104624
2205 0.0136063
2208 0.0138539
2211 0.00826621
2214 0.00437111
2217 0.00396886
2220 0.00628597
2223 0.0120543
2226 0.0190577
2229 0.0243274
2232 0.0223115
2235 0.017446
2238 0.0143965
2241 0.0125034
2244 0.00795532
2247 0.00795064
2250 0.0104651
2253 0.0145448
2256 0.0181217
2259 0.0171345
2262 0.0112772
2265 0.00752122
2268 0.00680551
2271 0.00945607
2274 0.0155879
2277 0.0249344
2280 0.0314135
2283 0.0282071
2286 0.0212066
2289 0.0173507
2292 0.0118865
2295 0.00487718
2298 0.00236049
2301 0.00123362
2304 0.000361695
2307 0.00014255
2310 0.000235111
2313 0.000369246
2316 0.000291204
2319 0.000682985
2322 0.00145617
2325 0.00349068
2328 0.00624904
2331 0.00990604
2334 0.0119253
2337 0.00412716
2340 0.00245114
2343 0.00315877
2346 0.00433819
2349 0.00744623
2352 0.00951075
2355 0.0104716
2358 0.00941315
2361 0.00829056
2364 0.00860673
2367 0.0103171
2370 0.0170776
2373 0.029655
2376 0.0400316
2379 0.0525444
2382 0.0583527
2385 0.0347354
2388 0.0164286
2391 0.0129752
2394 0.0132976
2397 0.0130882
2400 0.0145266
2403 0.0158698
2406 0.0152298
2409 0.0109963
2412 0.00738639
2415 0.00795003
2418 0.00912997
2421 0.011273
2424 0.0166283
2427 0.019783
2430 0.0181623
2433 0.0146986
2436 0.0106702
2439 0.00753729
2442 0.00810542
2445 0.0097186
2448 0.0123676
2451 0.0125844
2454 0.0112437
2457 0.0101829
2460 0.0111187
2463 0.0167867
2466 0.026584
2469 0.0360995
2472 0.0437839
2475 0.0456642
2478 0.0369918
2481 0.0236452
2484 0.015696
2487 0.0110453
2490 0.0057368
2493 0.00336141
2496 0.002679
2499 0.00230132
2502 0.00221435
2505 0.00306685
2508 0.00674623
2511 0.0117482
2514 0.0187217
2517 0.0279389
2520 0.0343538
2523 0.0310176
2526 0.021947
2529 0.0123081
2532 0.00673185
2535 0.00629617
2538 0.00733429
2541 0.00745416
2544 0.00791589
2547 0.00569659
2550 0.00400803
2553 0.00448412
2556 0.00598665
2559 0.00795166
2562 0.00901284
2565 0.00910539
2568 0.00709925
2571 0.00689435
2574 0.00772471
2577 0.00964028
2580 0.0122273
2583 0.0145443
2586 0.0163703
2589 0.0156405
2592 0.0101016
2595 0.00625522
2598 0.00458019
2601 0.00228656
2604 0.0010316
2607 0.000213141
2610 0.000355966
2613 0.000497771
2616 0.00122018
2619 0.00242833
2622 0.00393043
2625 0.0067799
2628 0.00815728
2631 0.0109033
2634 0.0105678
2637 0.00943088
2640 0.0101442
2643 0.0142143
2646 0.0207006
2649 0.02978
2652 0.0338652
2655 0.0323644
2658 0.0248953
2661 0.0155289
2664 0.00857069
2667 0.00439095
2670 0.00201883
2673 0.00076729
2676 0.00036333
2679 0.000600684
2682 0.000362366
2685 0.00102242
2688 0.00161145
2691 0.00209782
2694 0.00191414
2697 0.00175943
2700 0.00192276
2703 0.00331747
2706 0.00499435
2709 0.0064702
2712 0.00906407
2715 0.0100754
2718 0.0109126
2721 0.0102084
2724 0.0104466
2727 0.0132225
2730 0.0179845
2733 0.024984
2736 0.0285147
2739 0.0304047
2742 0.0241777
2745 0.0153277
2748 0.0122204
2751 0.00918035
2754 0.00752585
2757 0.00704948
2760 0.00596993
2763 0.00608474
2766 0.00557614
2769 0.00911692
2772 0.0127487
2775 0.0148935
2778 0.0184053
2781 0.0208119
2784 0.016277
2787 0.0110161
2790 0.0102317
2793 0.0116568
2796 0.0115164
2799 0.00951885
2802 0.00737796
2805 0.00590664
2808 0.00687431
2811 0.00851247
2814 0.00980936
2817 0.0118911
2820 0.0158545
2823 0.0172107
2826 0.0108163
2829 0.00453687
2832 0.00105467
2835 0.000680379
2838 0.000909966
2841 0.000690863
2844 0.00123547
2847 0.00266625
2850 0.00490171
2853 0.00670071
2856 0.00931821
2859 0.0101375
2862 0.0111153
2865 0.0105309
2868 0.00779724
2871 0.00710734
2874 0.00717165
2877 0.00761121
2880 0.00585116
2883 0.0072164
2886 0.00843266
2889 0.0108334
2892 0.0166094
2895 0.0224604
2898 0.0261973
2901 0.0272143
2904 0.0253252
2907 0.0209519
2910 0.016484
2913 0.0133454
2916 0.0119831
2919 0.0103935
2922 0.0105441
2925 0.00876282
2928 0.00695841
2931 0.00547773
2934 0.00566185
2937 0.00753706
2940 0.00892848
2943 0.0105657
2946 0.00819892
2949 0.00659615
2952 0.00737836
2955 0.00721542
2958 0.00793231
2961 0.00877973
2964 0.00744665
2967 0.00552831
2970 0.00600807
2973 0.00767527
2976 0.00908894
2979 0.010934
2982 0.0101344
2985 0.00820542
2988 0.00506884
2991 0.00215503
2994 0.00124038
2997 0.000634341
3000 0.000785533
3003 0.00118578
3006 0.00109833
3009 0.00323718
3012 0.0046563
3015 0.005731
3018 0.00602876
3021 0.00538025
3024 0.00649817
3027 0.00770844
3030 0.00795211
3033 0.00758971
3036 0.00822937
3039 0.00839744
3042 0.00831426
3045 0.00754586
3048 0.0080732
3051 0.0083084
3054 0.00769185
3057 0.00813122
3060 0.00743382
3063 0.00886406
3066 0.00924331
3069 0.00957443
3072 0.0103658
3075 0.00937039
3078 0.00939275
3081 0.00980663
3084 0.00775454
3087 0.0089689
3090 0.0111702
3093 0.0125592
3096 0.0102517
3099 0.00872048
3102 0.00817718
3105 0.00856084
3108 0.0072338
3111 0.00544563
3114 0.00658126
3117 0.00836946
3120 0.00947009
3123 0.0128779
3126 0.0162857
3129 0.0182064
3132 0.0207341
3135 0.0162256
3138 0.0101213
3141 0.00595201
3144 0.0043991
3147 0.0031487
3150 0.00272745
3153 0.00191061
3156 0.00161329
3159 0.00362676
3162 0.00361484
3165 0.00617974
3168 0.00930103
3171 0.00904403
3174 0.00749257
3177 0.00666817
3180 0.00758565
3183 0.00931816
3186 0.00979657
3189 0.0105453
3192 0.0112482
3195 0.0123072
3198 0.0156114
3201 0.0183186
3204 0.0192569
3207 0.0172216
3210 0.0123845
3213 0.0103994
3216 0.00854067
3219 0.00587444
3222 0.00460563
3225 0.00325568
3228 0.00218725
3231 0.00238183
3234 0.00127342
3237 0.000911195
3240 0.000939064
3243 0.000970363
3246 0.0011634
3249 0.00189076
3252 0.0031505
3255 0.00301899
3258 0.00207731
3261 0.00526722
3264 0.00622069
3267 0.00785321
3270 0.0100871
3273 0.0107765
3276 0.0120843
3279 0.0101182
3282 0.00675151
3285 0.00217158
3288 0.00282243
3291 0.00206916
3294 0.00088696
3297 0.000312805
3300 0.000915822
3303 0.00349936
3306 0.00203633
3309 0.00218045
3312 0.00485542
3315 0.00463201
3318 0.00326505
3321 0.0038368
3324 0.00283579
3327 0.00349073
3330 0.00692637
3333 0.00660138
3336 0.00755859
3339 0.0105081
3342 0.0128056
3345 0.0127382
3348 0.0117322
3351 0.0107071
3354 0.00996586
3357 0.0101153
3360 0.0087605
3363 0.00590963
3366 0.00812137
3369 0.0054837
3372 0.00451446
3375 0.00642447
3378 0.00632554
3381 0.00520235
3384 0.00715538
3387 0.00859273
3390 0.00791996
3393 0.00699004
3396 0.00845657
3399 0.00823442
3402 0.00680088
3405 0.00729976
3408 0.00864952
3411 0.00605166
3414 0.00387767
3417 0.00195676
3420 0.00247616
3423 0.00103894
3426 8.13155e-05
3429 0.00183071
3432 0.00296377
3435 0.00736404
3438 0.00243966
3441 0.00799342
3444 0.00966185
3447 0.00779828
3450 0.0117049
3453 0.0109378
3456 0.00720759
3459 0.00537199
3462 0.00958243
3465 0.00571858
3468 0.00462896
3471 0.00579404
3474 0.00418642
3477 0.00753017
3480 0.00111739
3483 0.0140488
3486 0.00104872
3487 0.0228535