File: constrainednmf/example_data/BaTiO3_xrd_ramp/BTO_420K_tth.xy
0.000000000000000000e+00 0.000203366
3 0.000338783
6 0.00058269
9 0.00257968
12 0.0121145
15 0.0138407
18 0.0131789
21 0.0124464
24 0.0129101
27 0.0128068
30 0.0104346
33 0.00428215
36 0.00307849
39 0.0031109
42 0.00323279
45 0.00323029
48 0.00319447
51 0.00314955
54 0.00318058
57 0.0031929
60 0.00326574
63 0.00334029
66 0.00329124
69 0.00329801
72 0.00336973
75 0.00341811
78 0.00353991
81 0.00365562
84 0.00372121
87 0.00372946
90 0.00362965
93 0.00361044
96 0.00349662
99 0.00346907
102 0.00341565
105 0.00337921
108 0.00337194
111 0.00331559
114 0.00334664
117 0.00321501
120 0.0032758
123 0.00321401
126 0.00305983
129 0.00311179
132 0.00312082
135 0.0030965
138 0.00299537
141 0.00299381
144 0.00299454
147 0.00293853
150 0.00282406
153 0.00283749
156 0.00275999
159 0.00272005
162 0.00269104
165 0.00273158
168 0.00265502
171 0.00263407
174 0.00257646
177 0.0024728
180 0.0024417
183 0.00242865
186 0.00239291
189 0.00223985
192 0.00236119
195 0.00225075
198 0.00224845
201 0.00219129
204 0.00213325
207 0.0021262
210 0.00213625
213 0.00211348
216 0.00207922
219 0.00210988
222 0.00203312
225 0.00203547
228 0.00207855
231 0.00209263
234 0.00205218
237 0.0021327
240 0.00202593
243 0.00204423
246 0.00213383
249 0.0021933
252 0.00208964
255 0.00215318
258 0.00213839
261 0.00224228
264 0.00225495
267 0.00221919
270 0.00236785
273 0.00231493
276 0.00238473
279 0.00248985
282 0.00260998
285 0.00262753
288 0.00262678
291 0.00257224
294 0.00256106
297 0.00243399
300 0.00221122
303 0.00208669
306 0.00200666
309 0.00190899
312 0.00202362
315 0.00208834
318 0.00204898
321 0.00222865
324 0.00286212
327 0.00593611
330 0.0292916
333 0.116341
336 0.0510997
339 0.00689356
342 0.00253947
345 0.00173002
348 0.00148252
351 0.00128586
354 0.00138932
357 0.00261533
360 0.004129
363 0.00296503
366 0.00171097
369 0.000936048
372 0.00080884
375 0.000738204
378 0.000670176
381 0.000795862
384 0.000796198
387 0.000873037
390 0.000810992
393 0.000808135
396 0.000908507
399 0.000795114
402 0.000830532
405 0.000928845
408 0.000907943
411 0.00120437
414 0.00129714
417 0.00118119
420 0.0010834
423 0.00131962
426 0.00136855
429 0.00126597
432 0.00143936
435 0.00148759
438 0.00160292
441 0.00175008
444 0.0021546
447 0.00249871
450 0.00302658
453 0.00377268
456 0.00474944
459 0.00639529
462 0.00990136
465 0.0206653
468 0.083632
471 0.686727
474 0.71487
477 0.0916206
480 0.0197624
483 0.00923412
486 0.00613471
489 0.00441665
492 0.00319292
495 0.00244378
498 0.00192223
501 0.00178439
504 0.00179814
507 0.00229665
510 0.00247065
513 0.00192607
516 0.00153734
519 0.000942137
522 0.000596483
525 0.000332706
528 0.000325059
531 0.00014957
534 0.000206628
537 0.000333776
540 0.000376329
543 0.000410347
546 0.000207629
549 0.000307896
552 0.000438345
555 0.000512123
558 0.00085744
561 0.0011817
564 0.00167624
567 0.00237145
570 0.00384455
573 0.0105896
576 0.0712174
579 0.37243
582 0.0901683
585 0.0118133
588 0.00433429
591 0.00248935
594 0.00186996
597 0.00141261
600 0.000990818
603 0.000582515
606 0.000468198
609 0.000603667
612 0.000605826
615 0.000626129
618 0.000650577
621 0.00114547
624 0.00188625
627 0.00161303
630 0.00148051
633 0.00142253
636 0.00157411
639 0.00131391
642 0.00160572
645 0.00174337
648 0.00240059
651 0.00343688
654 0.00527807
657 0.0086255
660 0.0170227
663 0.049781
666 0.170856
669 0.366686
672 0.212034
675 0.0358117
678 0.0117323
681 0.00605254
684 0.00411513
687 0.00350387
690 0.00312902
693 0.0019235
696 0.00151086
699 0.00108744
702 0.000724527
705 0.000839225
708 0.00066988
711 0.000534702
714 0.000696084
717 0.000784552
720 0.0005755
723 0.000809488
726 0.0008189
729 0.00113205
732 0.00119449
735 0.00183337
738 0.00354108
741 0.00843243
744 0.0334372
747 0.112208
750 0.111028
753 0.0201811
756 0.00498367
759 0.00233663
762 0.00151161
765 0.000969832
768 0.000940574
771 0.000800803
774 0.000870537
777 0.000860741
780 0.000969355
783 0.0012203
786 0.00149062
789 0.00179161
792 0.00201266
795 0.00227183
798 0.0028124
801 0.00407783
804 0.00536669
807 0.00812049
810 0.0147347
813 0.0371889
816 0.15677
819 0.571115
822 0.3672
825 0.0566931
828 0.0167618
831 0.00845824
834 0.00541935
837 0.00394235
840 0.00314317
843 0.00213723
846 0.00179172
849 0.00138298
852 0.0012092
855 0.00124756
858 0.00128113
861 0.000897392
864 0.000871393
867 0.000844919
870 0.000531262
873 0.000417444
876 0.000232713
879 0.000494721
882 0.000679294
885 0.000556172
888 0.000420473
891 0.000380436
894 0.000623911
897 0.000630452
900 0.000223383
903 0.000469788
906 0.00036483
909 0.000335988
912 0.000392369
915 0.000305151
918 0.000768088
921 0.000942649
924 0.00120848
927 0.00189382
930 0.00248439
933 0.00406531
936 0.00723992
939 0.016296
942 0.0581228
945 0.270681
948 0.313446
951 0.0814176
954 0.0182315
957 0.00743063
960 0.00416356
963 0.0025021
966 0.00202389
969 0.00172868
972 0.00145892
975 0.001539
978 0.00160361
981 0.00127608
984 0.00115455
987 0.00110351
990 0.00165006
993 0.00253492
996 0.00547002
999 0.0147577
1002 0.0582204
1005 0.10773
1008 0.0337657
1011 0.00709452
1014 0.00308464
1017 0.0018721
1020 0.00115776
1023 0.00109142
1026 0.00123588
1029 0.00140209
1032 0.00156912
1035 0.0019726
1038 0.00256205
1041 0.00373983
1044 0.00590484
1047 0.0102421
1050 0.0214742
1053 0.0597823
1056 0.132921
1059 0.241783
1062 0.17647
1065 0.0395432
1068 0.0137516
1071 0.00673388
1074 0.00456233
1077 0.00320808
1080 0.00247048
1083 0.00218278
1086 0.00197782
1089 0.00228799
1092 0.00240303
1095 0.00295919
1098 0.00448051
1101 0.00843214
1104 0.0207488
1107 0.0593911
1110 0.116353
1113 0.119861
1116 0.0275506
1119 0.00815937
1122 0.00360678
1125 0.00222391
1128 0.00141898
1131 0.0012245
1134 0.00123428
1137 0.00104945
1140 0.00122195
1143 0.00129042
1146 0.00185979
1149 0.00261547
1152 0.00513711
1155 0.0157887
1158 0.0863773
1161 0.152906
1164 0.0277296
1167 0.0066395
1170 0.00306356
1173 0.001616
1176 0.00119922
1179 0.00114257
1182 0.00104204
1185 0.00101917
1188 0.00128087
1191 0.00139366
1194 0.00206437
1197 0.00293746
1200 0.00551362
1203 0.0151421
1206 0.0389151
1209 0.0473335
1212 0.0169273
1215 0.0050679
1218 0.00280325
1221 0.00223172
1224 0.00244672
1227 0.00275121
1230 0.00290776
1233 0.00396293
1236 0.00489423
1239 0.00725665
1242 0.0120288
1245 0.0248023
1248 0.0708802
1251 0.229402
1254 0.379385
1257 0.153242
1260 0.0345545
1263 0.0135551
1266 0.00764732
1269 0.0046603
1272 0.00302107
1275 0.00248135
1278 0.00205456
1281 0.00159431
1284 0.00112898
1287 0.00096741
1290 0.000637162
1293 0.000612229
1296 0.000742917
1299 0.000670813
1302 0.000341445
1305 0.000441119
1308 0.000450086
1311 0.00032289
1314 0.000537711
1317 0.00050363
1320 0.000775518
1323 0.00133786
1326 0.00221753
1329 0.00386636
1332 0.00871784
1335 0.0170527
1338 0.0214649
1341 0.0408973
1344 0.0348322
1347 0.00983748
1350 0.00391008
1353 0.00223157
1356 0.00143677
1359 0.00140784
1362 0.0013387
1365 0.00160613
1368 0.00248136
1371 0.00427179
1374 0.00957796
1377 0.0214157
1380 0.0492753
1383 0.0684047
1386 0.0252623
1389 0.00716256
1392 0.00394669
1395 0.00264193
1398 0.00266664
1401 0.00286206
1404 0.00392713
1407 0.00574249
1410 0.00904765
1413 0.0190033
1416 0.0454014
1419 0.0910207
1422 0.147714
1425 0.119041
1428 0.0328322
1431 0.0122915
1434 0.00655318
1437 0.0046378
1440 0.0034145
1443 0.00315131
1446 0.00281592
1449 0.00347826
1452 0.00541161
1455 0.0122886
1458 0.0406992
1461 0.0686296
1464 0.0357049
1467 0.00949651
1470 0.00456832
1473 0.0032363
1476 0.00318932
1479 0.00318673
1482 0.00412797
1485 0.00612407
1488 0.0103415
1491 0.0216972
1494 0.0511206
1497 0.0830349
1500 0.137311
1503 0.0769949
1506 0.0220738
1509 0.00962527
1512 0.0053547
1515 0.00366249
1518 0.00335708
1521 0.00310086
1524 0.00376827
1527 0.00616847
1530 0.0135971
1533 0.0251936
1536 0.0429783
1539 0.0387428
1542 0.0111407
1545 0.00417927
1548 0.00254384
1551 0.00230609
1554 0.00187602
1557 0.00193243
1560 0.00300083
1563 0.00456584
1566 0.0112915
1569 0.0392751
1572 0.107364
1575 0.0583894
1578 0.0128453
1581 0.00489427
1584 0.00308197
1587 0.00218387
1590 0.0016534
1593 0.00122548
1596 0.00119961
1599 0.00151183
1602 0.000871137
1605 0.00113897
1608 0.00105624
1611 0.00116118
1614 0.00129158
1617 0.00123811
1620 0.00184644
1623 0.00215081
1626 0.0028679
1629 0.00413098
1632 0.00678833
1635 0.0148067
1638 0.0382441
1641 0.0764852
1644 0.11582
1647 0.0422539
1650 0.0125617
1653 0.00649868
1656 0.00435735
1659 0.00374991
1662 0.00310945
1665 0.00360262
1668 0.00516564
1671 0.00892867
1674 0.0162641
1677 0.022325
1680 0.0177036
1683 0.00783497
1686 0.00476941
1689 0.00526643
1692 0.00629001
1695 0.00818562
1698 0.0129572
1701 0.0239874
1704 0.0485579
1707 0.0968704
1710 0.155978
1713 0.134925
1716 0.0501191
1719 0.0181766
1722 0.0102837
1725 0.00712508
1728 0.0062621
1731 0.00664138
1734 0.00940122
1737 0.014224
1740 0.0205277
1743 0.0384525
1746 0.0335154
1749 0.0119014
1752 0.00490025
1755 0.0028364
1758 0.00200924
1761 0.00155456
1764 0.00110165
1767 0.00104183
1770 0.000979665
1773 0.00077881
1776 0.00103187
1779 0.000783447
1782 0.00107757
1785 0.00130009
1788 0.00149741
1791 0.00186299
1794 0.00276104
1797 0.00496975
1800 0.00977057
1803 0.0219758
1806 0.0412465
1809 0.0368345
1812 0.012876
1815 0.00572484
1818 0.00455363
1821 0.00482364
1824 0.00642326
1827 0.0113129
1830 0.0225603
1833 0.0357737
1836 0.0470539
1839 0.0811092
1842 0.0532407
1845 0.0169459
1848 0.00744847
1851 0.00436139
1854 0.00283631
1857 0.00197827
1860 0.00151509
1863 0.00118395
1866 0.00113504
1869 0.000582792
1872 0.000177703
1875 0.000881999
1878 0.000869655
1881 0.000849964
1884 0.00181366
1887 0.00203208
1890 0.00409209
1893 0.0103379
1896 0.0258211
1899 0.0251333
1902 0.0166414
1905 0.00670987
1908 0.00297793
1911 0.00241276
1914 0.00207621
1917 0.00282517
1920 0.00492248
1923 0.00983149
1926 0.0177019
1929 0.021225
1932 0.0128218
1935 0.00504947
1938 0.00356317
1941 0.00373929
1944 0.00475692
1947 0.00770179
1950 0.0157643
1953 0.0333698
1956 0.068106
1959 0.0659511
1962 0.0252673
1965 0.0101709
1968 0.00604147
1971 0.00519207
1974 0.00583135
1977 0.0084034
1980 0.0148753
1983 0.0232766
1986 0.0353195
1989 0.0293603
1992 0.0124282
1995 0.00585885
1998 0.00468253
2001 0.00540418
2004 0.00756708
2007 0.012318
2010 0.0272546
2013 0.0557392
2016 0.0518836
2019 0.024129
2022 0.00925481
2025 0.00521203
2028 0.00408892
2031 0.00384199
2034 0.00466088
2037 0.00510352
2040 0.00520419
2043 0.00785512
2046 0.0092265
2049 0.00551001
2052 0.00535271
2055 0.00637975
2058 0.00925529
2061 0.0169758
2064 0.0293345
2067 0.044565
2070 0.0725482
2073 0.0656517
2076 0.0250776
2079 0.010142
2082 0.00635531
2085 0.00406368
2088 0.00290084
2091 0.00235964
2094 0.00204256
2097 0.00228212
2100 0.00205683
2103 0.00223249
2106 0.00280044
2109 0.00358402
2112 0.00555678
2115 0.00956336
2118 0.0129853
2121 0.0137811
2124 0.0236214
2127 0.0319699
2130 0.0165502
2133 0.00735798
2136 0.00560465
2139 0.0056147
2142 0.00775408
2145 0.0111777
2148 0.0187434
2151 0.0262844
2154 0.02013
2157 0.0090676
2160 0.00522641
2163 0.00469128
2166 0.00585018
2169 0.0102163
2172 0.0229723
2175 0.0391741
2178 0.0384353
2181 0.0244653
2184 0.0095401
2187 0.00447206
2190 0.0028519
2193 0.00290159
2196 0.00420443
2199 0.00825959
2202 0.0132591
2205 0.0131518
2208 0.00453241
2211 0.00335519
2214 0.00257065
2217 0.00424613
2220 0.00749532
2223 0.0109609
2226 0.0132226
2229 0.023977
2232 0.0245972
2235 0.0100221
2238 0.00471499
2241 0.00367971
2244 0.00418898
2247 0.00659092
2250 0.0108067
2253 0.0156999
2256 0.0152059
2259 0.00809117
2262 0.00442474
2265 0.00415021
2268 0.00596624
2271 0.0106011
2274 0.0153256
2277 0.0195077
2280 0.0314696
2283 0.0245637
2286 0.00893944
2289 0.00425566
2292 0.00226673
2295 0.00121778
2298 0.00107124
2301 0.000314594
2304 0.000605051
2307 6.76842e-05
2310 0.000424645
2313 0.000517007
2316 0.000574264
2319 0.000824937
2322 0.00184052
2325 0.00563335
2328 0.0117852
2331 0.00652416
2334 0.00247387
2337 0.000823566
2340 0.00197162
2343 0.00301387
2346 0.00477761
2349 0.00589178
2352 0.00846354
2355 0.0114122
2358 0.00693788
2361 0.00517149
2364 0.00681195
2367 0.00927483
2370 0.0151826
2373 0.0294192
2376 0.0486633
2379 0.0449331
2382 0.0232219
2385 0.0107932
2388 0.00719224
2391 0.00623842
2394 0.00760808
2397 0.0106334
2400 0.0132317
2403 0.0138122
2406 0.0103748
2409 0.00540775
2412 0.00477364
2415 0.00565936
2418 0.00903319
2421 0.012742
2424 0.0170619
2427 0.0160257
2430 0.00995171
2433 0.00508594
2436 0.00483213
2439 0.00503205
2442 0.00665114
2445 0.00881418
2448 0.0114316
2451 0.0112802
2454 0.00793423
2457 0.00739216
2460 0.00994651
2463 0.0146394
2466 0.0211613
2469 0.0309347
2472 0.0420526
2475 0.0346693
2478 0.0149678
2481 0.0070048
2484 0.00438876
2487 0.00341722
2490 0.00306259
2493 0.00304608
2496 0.0026719
2499 0.00270141
2502 0.00306891
2505 0.00408402
2508 0.00773148
2511 0.0144402
2514 0.0225244
2517 0.0315571
2520 0.0248214
2523 0.0115338
2526 0.00570039
2529 0.00376687
2532 0.00438648
2535 0.00482686
2538 0.00731706
2541 0.00755294
2544 0.0045091
2547 0.00339722
2550 0.00333304
2553 0.00401626
2556 0.00440176
2559 0.00533951
2562 0.00818141
2565 0.00953337
2568 0.00583188
2571 0.00462534
2574 0.00523999
2577 0.0062156
2580 0.00860984
2583 0.0139439
2586 0.0155365
2589 0.00931645
2592 0.0037086
2595 0.00201751
2598 0.00125699
2601 0.00102734
2604 0.000707503
2607 0.000885017
2610 0.00107897
2613 0.000856382
2616 0.0016386
2619 0.00257813
2622 0.00434084
2625 0.00783899
2628 0.00961948
2631 0.00780554
2634 0.00503177
2637 0.00609282
2640 0.00880719
2643 0.014245
2646 0.0211625
2649 0.0268613
2652 0.0270408
2655 0.0157051
2658 0.00684471
2661 0.00323943
2664 0.00230288
2667 0.0016882
2670 0.00112521
2673 0.000779822
2676 0.000453234
2679 0.000536782
2682 0.00145199
2685 0.00145752
2688 0.00129753
2691 0.00200937
2694 0.00274724
2697 0.00381064
2700 0.00287713
2703 0.00280478
2706 0.00376484
2709 0.00656342
2712 0.00853914
2715 0.00949588
2718 0.00776093
2721 0.00700796
2724 0.00794804
2727 0.00993279
2730 0.0134793
2733 0.0222345
2736 0.0259762
2739 0.0175197
2742 0.00931198
2745 0.00506974
2748 0.00423652
2751 0.0037362
2754 0.00473996
2757 0.00562208
2760 0.00586744
2763 0.00538556
2766 0.00496859
2769 0.00652678
2772 0.00979077
2775 0.0159029
2778 0.0182688
2781 0.0121166
2784 0.00672023
2787 0.00483649
2790 0.00457025
2793 0.00454364
2796 0.00639215
2799 0.00845136
2802 0.00654162
2805 0.0035054
2808 0.00431708
2811 0.00572556
2814 0.0115247
2817 0.0143348
2820 0.0099109
2823 0.00418186
2826 0.00213187
2829 0.000761078
2832 0.000545647
2835 0.000528807
2838 0.0016496
2841 0.00182061
2844 0.00198847
2847 0.00295794
2850 0.00398607
2853 0.00637291
2856 0.00802843
2859 0.00886855
2862 0.0085375
2865 0.00585595
2868 0.00390076
2871 0.00284797
2874 0.00437964
2877 0.00489259
2880 0.00481108
2883 0.00487261
2886 0.00710976
2889 0.00970721
2892 0.0122244
2895 0.0152078
2898 0.022406
2901 0.0203466
2904 0.0111135
2907 0.0050841
2910 0.00584708
2913 0.0057395
2916 0.00842045
2919 0.00706494
2922 0.00554932
2925 0.00304212
2928 0.00337255
2931 0.00500255
2934 0.00731591
2937 0.0060302
2940 0.00486271
2943 0.00380045
2946 0.00319706
2949 0.00280358
2952 0.00379842
2955 0.00588759
2958 0.00726095
2961 0.00447316
2964 0.00344455
2967 0.00254493
2970 0.00500994
2973 0.00682213
2976 0.008004
2979 0.00610803
2982 0.00254961
2985 0.00145473
2988 0.0013086
2991 0.000853595
2994 0.000551086
2997 0.00185695
3000 0.000506573
3003 0.00173621
3006 0.00219189
3009 0.0028887
3012 0.00383507
3015 0.00577724
3018 0.00489595
3021 0.00355288
3024 0.00238957
3027 0.00326943
3030 0.00429364
3033 0.00644385
3036 0.00518788
3039 0.00490657
3042 0.00402601
3045 0.00306113
3048 0.00301277
3051 0.00474809
3054 0.00732715
3057 0.00720561
3060 0.00535687
3063 0.00524756
3066 0.00426954
3069 0.00670583
3072 0.00731083
3075 0.00705817
3078 0.00474746
3081 0.00542986
3084 0.00520372
3087 0.00538645
3090 0.00888231
3093 0.00953468
3096 0.00569368
3099 0.00327881
3102 0.00322813
3105 0.00355454
3108 0.00341404
3111 0.0042851
3114 0.00530145
3117 0.00603974
3120 0.00737462
3123 0.0110297
3126 0.0155114
3129 0.0125065
3132 0.00907883
3135 0.0051698
3138 0.00283125
3141 0.00217716
3144 0.00218744
3147 0.00247028
3150 0.00135943
3153 0.00118945
3156 0.00242182
3159 0.00497575
3162 0.00544657
3165 0.00568529
3168 0.00285159
3171 0.00366191
3174 0.00381555
3177 0.00476357
3180 0.00678122
3183 0.00715702
3186 0.00640854
3189 0.00588276
3192 0.00611549
3195 0.00994144
3198 0.0123065
3201 0.0140311
3204 0.00948132
3207 0.00573915
3210 0.00420386
3213 0.00315354
3216 0.00256339
3219 0.00408925
3222 0.00529554
3225 0.00259786
3228 0.00268871
3231 0.00204476
3234 0.000829095
3237 0.00100834
3240 0.00104907
3243 0.00234496
3246 0.000920502
3249 0.00276108
3252 0.00278346
3255 0.00313776
3258 0.00323315
3261 0.00533571
3264 0.00403128
3267 0.00782156
3270 0.00829024
3273 0.0074122
3276 0.00647843
3279 0.00430535
3282 0.00287566
3285 0.00446971
3288 0.00133021
3291 0.00183223
3294 0.00151829
3297 0.000149659
3300 0.00170014
3303 0.00227561
3306 0.00349751
3309 0.00595001
3312 0.00352037
3315 0.00385657
3318 0.00439956
3321 0.00284237
3324 0.00393818
3327 0.00337203
3330 0.00524099
3333 0.00511334
3336 0.00471422
3339 0.00889128
3342 0.0104234
3345 0.008403
3348 0.00477788
3351 0.00395526
3354 0.00314684
3357 0.00547128
3360 0.00535341
3363 0.00371817
3366 0.00399813
3369 0.00161488
3372 0.00412506
3375 0.00355213
3378 0.0057043
3381 0.00613626
3384 0.00474464
3387 0.000825392
3390 0.00377817
3393 0.0046509
3396 0.00565911
3399 0.00543148
3402 0.00484848
3405 0.00437746
3408 0.00596957
3411 0.00576641
3414 0.00272459
3417 0.00379187
3420 0.00125574
3423 0.00222192
3426 0.00039879
3429 0.00236931
3432 0.00350148
3435 0.00584176
3438 0.00183528
3441 0.00723887
3444 0.00894053
3447 0.00464965
3450 0.00913051
3453 0.00518099
3456 0.000394957
3459 0.00380653
3462 0.00632706
3465 0.00246487
3468 0.00117787
3471 0.00474706
3474 0.000498435
3477 0.00944584
3480 0.0073063
3483 0.00168045
3486 0.0115153
3487 0.0137895