File: constrainednmf/example_data/BaTiO3_xrd_ramp/BTO_445K_tth.xy
0.000000000000000000e+00 0.000214299
3 0.000335133
6 0.000597336
9 0.00263186
12 0.0120517
15 0.0137732
18 0.0130517
21 0.0123627
24 0.0127687
27 0.0127038
30 0.0103552
33 0.0042847
36 0.00306985
39 0.00306565
42 0.00318517
45 0.00321357
48 0.00316321
51 0.00312137
54 0.00315661
57 0.00320396
60 0.00324844
63 0.00327959
66 0.00329435
69 0.00329336
72 0.00332559
75 0.00339747
78 0.00348812
81 0.00361442
84 0.00368875
87 0.00367973
90 0.00362554
93 0.0035398
96 0.0035523
99 0.00344745
102 0.00335957
105 0.00334227
108 0.00339921
111 0.00330656
114 0.00334986
117 0.0032854
120 0.00323847
123 0.00321884
126 0.00304445
129 0.00319968
132 0.0031359
135 0.0030328
138 0.00302015
141 0.00294559
144 0.00300354
147 0.00292996
150 0.00284556
153 0.0028397
156 0.00281187
159 0.00281377
162 0.00266043
165 0.00270731
168 0.00262333
171 0.00259054
174 0.00255621
177 0.0025206
180 0.00252423
183 0.00249643
186 0.00239294
189 0.00232798
192 0.00230776
195 0.0022936
198 0.00227131
201 0.00219899
204 0.0022366
207 0.00213708
210 0.00215843
213 0.00213923
216 0.00215057
219 0.00210544
222 0.00203791
225 0.00203755
228 0.00213173
231 0.0021872
234 0.00206898
237 0.00210986
240 0.0020245
243 0.00209255
246 0.00209189
249 0.00219758
252 0.00213035
255 0.00216732
258 0.00217154
261 0.00223928
264 0.00231106
267 0.00228252
270 0.00229497
273 0.00245103
276 0.00243953
279 0.00250965
282 0.002575
285 0.0025846
288 0.00256972
291 0.00256892
294 0.00254149
297 0.00238446
300 0.00225487
303 0.00209516
306 0.00197635
309 0.00195478
312 0.00195006
315 0.00195865
318 0.00203886
321 0.00213133
324 0.00292276
327 0.00587558
330 0.0276588
333 0.119181
336 0.0482324
339 0.00662417
342 0.00254681
345 0.00170954
348 0.0014005
351 0.00131021
354 0.0015569
357 0.00269689
360 0.00398113
363 0.00295954
366 0.00163886
369 0.00092851
372 0.000751753
375 0.00072478
378 0.000691
381 0.000718448
384 0.000789954
387 0.000811614
390 0.000833988
393 0.000801476
396 0.000874411
399 0.000883727
402 0.000769793
405 0.000802361
408 0.000879871
411 0.00122002
414 0.00135411
417 0.00117017
420 0.00102901
423 0.00129327
426 0.00144857
429 0.00129184
432 0.0012072
435 0.00121873
438 0.00154634
441 0.00187198
444 0.00208727
447 0.0025875
450 0.00319382
453 0.00367799
456 0.00471249
459 0.00633597
462 0.00985458
465 0.0205285
468 0.0822954
471 0.678141
474 0.702103
477 0.0864349
480 0.0192316
483 0.00910096
486 0.00597041
489 0.00440118
492 0.00328442
495 0.00258237
498 0.00205403
501 0.00177673
504 0.001886
507 0.00251763
510 0.00261148
513 0.00193091
516 0.00171698
519 0.00101008
522 0.000544486
525 0.000350891
528 0.000321557
531 0.000419722
534 0.000319308
537 0.00021112
540 0.000299977
543 0.00042031
546 0.000301763
549 0.0003372
552 0.000516702
555 0.000693403
558 0.000833967
561 0.00122361
564 0.00154625
567 0.00218243
570 0.00390387
573 0.0108376
576 0.0717609
579 0.366958
582 0.0871758
585 0.0112771
588 0.00405271
591 0.00260856
594 0.00180856
597 0.0012946
600 0.00105863
603 0.000822767
606 0.000613895
609 0.000584611
612 0.000735854
615 0.000668971
618 0.000705034
621 0.00125456
624 0.00197522
627 0.00165388
630 0.00136877
633 0.00151832
636 0.0016291
639 0.00147941
642 0.00152841
645 0.00168199
648 0.00244775
651 0.00342365
654 0.00533864
657 0.00831514
660 0.0166712
663 0.0449103
666 0.155852
669 0.411171
672 0.184541
675 0.0328261
678 0.0111374
681 0.00602611
684 0.00414857
687 0.00369547
690 0.00329684
693 0.00243233
696 0.00148601
699 0.0011622
702 0.00105214
705 0.000971295
708 0.000815518
711 0.00043107
714 0.000442397
717 0.00066718
720 0.000793691
723 0.000958148
726 0.000808705
729 0.00082952
732 0.00132933
735 0.00187203
738 0.0036807
741 0.00826128
744 0.0300972
747 0.117336
750 0.105523
753 0.0181278
756 0.00473512
759 0.00211329
762 0.00129561
765 0.000988364
768 0.000939018
771 0.000906408
774 0.00104708
777 0.000979747
780 0.000999922
783 0.00110917
786 0.00136583
789 0.00161235
792 0.00183611
795 0.00236651
798 0.00278783
801 0.00382088
804 0.00558966
807 0.00822865
810 0.0145637
813 0.0358057
816 0.147205
819 0.592616
822 0.339099
825 0.0527349
828 0.0162644
831 0.00813211
834 0.00526036
837 0.00382053
840 0.00287812
843 0.00223818
846 0.00177466
849 0.00128725
852 0.00127385
855 0.00122555
858 0.00086703
861 0.00111154
864 0.00056356
867 0.000411549
870 0.000279536
873 0.000382907
876 0.000398293
879 0.000655249
882 0.000568124
885 0.000571447
888 0.000452655
891 0.000515528
894 0.000308332
897 0.000272293
900 0.000453402
903 0.000279537
906 0.0002477
909 0.000386381
912 0.000395588
915 0.000580413
918 0.00057756
921 0.000748756
924 0.00123127
927 0.00182494
930 0.00253248
933 0.00389402
936 0.00725153
939 0.0160656
942 0.0558496
945 0.263379
948 0.323245
951 0.0707096
954 0.0173534
957 0.00721856
960 0.0040644
963 0.00235191
966 0.00186558
969 0.00156887
972 0.00151339
975 0.00162372
978 0.00132411
981 0.00114608
984 0.000924359
987 0.00107209
990 0.00164662
993 0.00223818
996 0.00504848
999 0.0137131
1002 0.0572769
1005 0.111073
1008 0.0293814
1011 0.00650026
1014 0.00240308
1017 0.00116664
1020 0.00139845
1023 0.000798781
1026 0.000986349
1029 0.000926664
1032 0.00142289
1035 0.00170668
1038 0.00266687
1041 0.00379454
1044 0.00570566
1047 0.00941481
1050 0.0196908
1053 0.05033
1056 0.125002
1059 0.285827
1062 0.148333
1065 0.0346086
1068 0.012702
1071 0.00657557
1074 0.00410914
1077 0.00317055
1080 0.00260952
1083 0.00220903
1086 0.0017328
1089 0.00196259
1092 0.00220946
1095 0.00271082
1098 0.00439958
1101 0.00773376
1104 0.0182025
1107 0.0520285
1110 0.135105
1113 0.108738
1116 0.0234452
1119 0.0072715
1122 0.00338134
1125 0.00186068
1128 0.00116682
1131 0.000853621
1134 0.000847103
1137 0.000673606
1140 0.000775205
1143 0.00145016
1146 0.00126147
1149 0.00232766
1152 0.00503693
1155 0.0158074
1158 0.0865616
1161 0.148828
1164 0.026095
1167 0.00636027
1170 0.00248302
1173 0.00152707
1176 0.00116044
1179 0.000804924
1182 0.000912017
1185 0.00105045
1188 0.000929333
1191 0.00139105
1194 0.00186337
1197 0.00256245
1200 0.00510975
1203 0.0135695
1206 0.039738
1209 0.0488495
1212 0.0143204
1215 0.00465095
1218 0.00252208
1221 0.00244427
1224 0.00227154
1227 0.0025977
1230 0.00303729
1233 0.00361459
1236 0.00470674
1239 0.00726528
1242 0.012
1245 0.0238133
1248 0.065139
1251 0.222188
1254 0.400735
1257 0.132115
1260 0.0312887
1263 0.0130125
1266 0.00685082
1269 0.00454549
1272 0.00314477
1275 0.00219944
1278 0.0016769
1281 0.00142059
1284 0.000975266
1287 0.000893831
1290 0.000528472
1293 0.000961873
1296 0.000533366
1299 0.00030837
1302 0.000296622
1305 0.000418377
1308 0.000423022
1311 0.000383384
1314 0.000323207
1317 0.000382114
1320 0.000749363
1323 0.00120097
1326 0.00186258
1329 0.00314889
1332 0.00691304
1335 0.0136511
1338 0.0252924
1341 0.0493775
1344 0.0276505
1347 0.00791443
1350 0.00334659
1353 0.002016
1356 0.00142118
1359 0.00123643
1362 0.00116748
1365 0.00178043
1368 0.00206751
1371 0.00407496
1374 0.00819282
1377 0.018848
1380 0.0531325
1383 0.0693247
1386 0.0206541
1389 0.00629809
1392 0.00335945
1395 0.00218991
1398 0.00184952
1401 0.0026822
1404 0.00367296
1407 0.00509968
1410 0.00889459
1413 0.0172436
1416 0.03805
1419 0.0886886
1422 0.173362
1425 0.100533
1428 0.027781
1431 0.0109764
1434 0.00612106
1437 0.00406664
1440 0.00335403
1443 0.00281669
1446 0.00261416
1449 0.00320449
1452 0.0047252
1455 0.011243
1458 0.0377453
1461 0.0727181
1464 0.0313516
1467 0.00812604
1470 0.00374964
1473 0.00283808
1476 0.00250476
1479 0.0031987
1482 0.00393091
1485 0.00556707
1488 0.00919289
1491 0.0188998
1494 0.0425213
1497 0.0906387
1500 0.151495
1503 0.0628309
1506 0.0187697
1509 0.00825564
1512 0.00496192
1515 0.00334307
1518 0.00272621
1521 0.00249518
1524 0.00335573
1527 0.00530079
1530 0.0111312
1533 0.0236746
1536 0.050712
1539 0.034129
1542 0.00940014
1545 0.00390251
1548 0.00203624
1551 0.00170728
1554 0.00139983
1557 0.0019286
1560 0.00261251
1563 0.00488604
1566 0.0109217
1569 0.0376754
1572 0.107046
1575 0.0537258
1578 0.0113994
1581 0.00456061
1584 0.00266723
1587 0.0016638
1590 0.00112111
1593 0.000946935
1596 0.000891888
1599 0.000878969
1602 0.000811301
1605 0.000954259
1608 0.000738027
1611 0.000645664
1614 0.00079256
1617 0.000946854
1620 0.00121206
1623 0.0017242
1626 0.00223629
1629 0.0036048
1632 0.00666702
1635 0.0130617
1638 0.0334641
1641 0.0821408
1644 0.117746
1647 0.0351302
1650 0.0113832
1653 0.00560204
1656 0.00387356
1659 0.00305879
1662 0.00272338
1665 0.003331
1668 0.00437938
1671 0.00740681
1674 0.0154575
1677 0.0252115
1680 0.0148398
1683 0.00632434
1686 0.00470461
1689 0.00457718
1692 0.00557036
1695 0.00724052
1698 0.0117393
1701 0.0210925
1704 0.0417544
1707 0.0925847
1710 0.181256
1713 0.121312
1716 0.0397345
1719 0.0158882
1722 0.00940356
1725 0.00639031
1728 0.00575304
1731 0.00565785
1734 0.00776464
1737 0.0118322
1740 0.0217026
1743 0.0449528
1746 0.0273739
1749 0.00953673
1752 0.00377034
1755 0.00266005
1758 0.00153935
1761 0.00106073
1764 0.0010282
1767 0.000656319
1770 0.000553141
1773 0.000594751
1776 0.00053828
1779 0.000512817
1782 0.000397904
1785 0.000556768
1788 0.000747907
1791 0.00147508
1794 0.00235967
1797 0.0041227
1800 0.0081248
1803 0.0194971
1806 0.0454792
1809 0.0337907
1812 0.010663
1815 0.00470404
1818 0.00409824
1821 0.00458434
1824 0.00621684
1827 0.00976155
1830 0.0181774
1833 0.0304549
1836 0.0586915
1839 0.0878412
1842 0.0416113
1845 0.0140551
1848 0.00634799
1851 0.00365953
1854 0.0021455
1857 0.00167259
1860 0.00099067
1863 0.000580492
1866 0.000440809
1869 0.000217991
1872 0.00014848
1875 0.000548357
1878 0.000669156
1881 0.00072982
1884 0.00104068
1887 0.00201274
1890 0.00385017
1893 0.009129
1896 0.0243643
1899 0.0297971
1902 0.0140977
1905 0.00514169
1908 0.0028943
1911 0.00222276
1914 0.00215676
1917 0.00244668
1920 0.00409753
1923 0.00855543
1926 0.0180965
1929 0.0232661
1932 0.0106759
1935 0.00404453
1938 0.00306502
1941 0.00356023
1944 0.00469664
1947 0.00702214
1950 0.0137998
1953 0.0308309
1956 0.0726993
1959 0.0646328
1962 0.0210722
1965 0.00859305
1968 0.0051402
1971 0.00442789
1974 0.0051988
1977 0.00714238
1980 0.0127023
1983 0.0235033
1986 0.0411584
1989 0.026186
1992 0.00993682
1995 0.00518934
1998 0.00407784
2001 0.00497647
2004 0.00686534
2007 0.011303
2010 0.0256864
2013 0.0587315
2016 0.0532092
2019 0.0194923
2022 0.00753615
2025 0.00470868
2028 0.00398428
2031 0.00378905
2034 0.00411361
2037 0.00427065
2040 0.00647095
2043 0.00936308
2046 0.00780543
2049 0.00527609
2052 0.00460873
2055 0.00601984
2058 0.00883926
2061 0.0144459
2064 0.0249743
2067 0.0471071
2070 0.0859863
2073 0.0557797
2076 0.0197151
2079 0.00938245
2082 0.0054955
2085 0.00357924
2088 0.00263816
2091 0.00242228
2094 0.00223256
2097 0.00176872
2100 0.00229649
2103 0.00222625
2106 0.00264318
2109 0.00343454
2112 0.00506443
2115 0.0073326
2118 0.0103947
2121 0.0164496
2124 0.0316128
2127 0.0280092
2130 0.012844
2133 0.00688041
2136 0.00462155
2139 0.00515996
2142 0.00683763
2145 0.0102583
2148 0.0199432
2151 0.0302096
2154 0.0177572
2157 0.00772177
2160 0.00468597
2163 0.00443682
2166 0.00591584
2169 0.00973371
2172 0.0199862
2175 0.0401716
2178 0.0430971
2181 0.0199269
2184 0.00836512
2187 0.00423314
2190 0.00342014
2193 0.0033941
2196 0.00388447
2199 0.007783
2202 0.0150696
2205 0.0123285
2208 0.00441408
2211 0.00291136
2214 0.00321209
2217 0.00418046
2220 0.00675422
2223 0.00977238
2226 0.0163512
2229 0.0290754
2232 0.0202602
2235 0.00825009
2238 0.00425116
2241 0.00354468
2244 0.00382456
2247 0.00578154
2250 0.0100253
2253 0.0176094
2256 0.0152472
2259 0.00660247
2262 0.00430519
2265 0.00365769
2268 0.00551143
2271 0.00871581
2274 0.0132644
2277 0.0233409
2280 0.0357407
2283 0.0198669
2286 0.00812468
2289 0.00360119
2292 0.00184186
2295 0.000899081
2298 0.00121229
2301 0.000854009
2304 0.000615806
2307 0.000320101
2310 0.000246721
2313 0.000586466
2316 0.000557947
2319 0.000731816
2322 0.0024216
2325 0.00621435
2328 0.0121371
2331 0.00638391
2334 0.00221844
2337 0.00162161
2340 0.00173391
2343 0.00280658
2346 0.00419197
2349 0.00593124
2352 0.0108806
2355 0.0110876
2358 0.00631472
2361 0.00512587
2364 0.0062126
2367 0.00856245
2370 0.01365
2373 0.0285511
2376 0.0541364
2379 0.044529
2382 0.0184859
2385 0.0095168
2388 0.00687312
2391 0.00650375
2394 0.00668725
2397 0.0105969
2400 0.0162907
2403 0.0145954
2406 0.00868541
2409 0.00527164
2412 0.00423035
2415 0.0054398
2418 0.00842492
2421 0.0126702
2424 0.0207126
2427 0.0161925
2430 0.00818281
2433 0.00475429
2436 0.00417502
2439 0.0051955
2442 0.00634999
2445 0.00940174
2448 0.0137534
2451 0.0106627
2454 0.00701335
2457 0.00669483
2460 0.00860882
2463 0.0125734
2466 0.0192383
2469 0.0359441
2472 0.0476953
2475 0.0277954
2478 0.0122837
2481 0.00649995
2484 0.00418047
2487 0.00305292
2490 0.00312163
2493 0.00260511
2496 0.00311335
2499 0.00248605
2502 0.00254391
2505 0.00403669
2508 0.00704461
2511 0.0125592
2514 0.0234876
2517 0.0352267
2520 0.0219246
2523 0.00881461
2526 0.00456094
2529 0.00381275
2532 0.00380147
2535 0.00473936
2538 0.00780743
2541 0.0075663
2544 0.00384498
2547 0.00222175
2550 0.00211458
2553 0.00317297
2556 0.00422416
2559 0.00576353
2562 0.00998186
2565 0.00806387
2568 0.00501042
2571 0.00386014
2574 0.00436113
2577 0.00559326
2580 0.00896189
2583 0.0169545
2586 0.0151038
2589 0.00669993
2592 0.00272651
2595 0.00119796
2598 0.000794593
2601 0.000438584
2604 0.000502759
2607 0.000641983
2610 0.000432662
2613 0.000951662
2616 0.00114391
2619 0.00198772
2622 0.00339143
2625 0.00690535
2628 0.0102422
2631 0.00657183
2634 0.00460318
2637 0.00510113
2640 0.00698976
2643 0.011433
2646 0.0207551
2649 0.0317702
2652 0.0247575
2655 0.0118909
2658 0.00492271
2661 0.00264887
2664 0.00155987
2667 0.00134596
2670 0.00111053
2673 0.000227946
2676 0.00067526
2679 0.00058055
2682 0.000780036
2685 0.000535734
2688 0.000499742
2691 0.00177367
2694 0.00275683
2697 0.00248494
2700 0.00199727
2703 0.00217689
2706 0.00294797
2709 0.00530562
2712 0.00872392
2715 0.00938839
2718 0.00647605
2721 0.00487954
2724 0.00620814
2727 0.00830139
2730 0.0133758
2733 0.0255345
2736 0.026279
2739 0.0135575
2742 0.00726029
2745 0.00458638
2748 0.00336734
2751 0.00322318
2754 0.00486172
2757 0.00583126
2760 0.00418636
2763 0.0027752
2766 0.00333027
2769 0.00475445
2772 0.00953143
2775 0.0180823
2778 0.0177807
2781 0.0082287
2784 0.00580137
2787 0.0034896
2790 0.00414334
2793 0.0050475
2796 0.00788437
2799 0.00613179
2802 0.00434122
2805 0.00277797
2808 0.00250155
2811 0.00642547
2814 0.00989389
2817 0.0140578
2820 0.00779999
2823 0.00271253
2826 0.00106108
2829 0.000255324
2832 0.000853142
2835 0.000818048
2838 0.000756887
2841 0.00122721
2844 0.00095741
2847 0.00186515
2850 0.00355256
2853 0.0053804
2856 0.00913118
2859 0.0104175
2862 0.00700372
2865 0.00440575
2868 0.00240318
2871 0.00274307
2874 0.00278801
2877 0.00513081
2880 0.00450953
2883 0.00367325
2886 0.00628588
2889 0.00743037
2892 0.011297
2895 0.0197347
2898 0.0257764
2901 0.0167275
2904 0.00903939
2907 0.00642424
2910 0.0050038
2913 0.00605331
2916 0.00845931
2919 0.00732498
2922 0.0041731
2925 0.0021559
2928 0.00248018
2931 0.00397095
2934 0.00720732
2937 0.00749196
2940 0.00431682
2943 0.00280476
2946 0.00176918
2949 0.00307179
2952 0.00432083
2955 0.00726749
2958 0.00660973
2961 0.00325218
2964 0.00221566
2967 0.00323924
2970 0.00455681
2973 0.00795052
2976 0.00917562
2979 0.00532466
2982 0.00247332
2985 0.0016477
2988 0.000830191
2991 0.000686419
2994 0.0008554
2997 0.000425569
3000 0.00155967
3003 0.00164504
3006 0.00197427
3009 0.00308835
3012 0.00445703
3015 0.00633615
3018 0.00433476
3021 0.0023899
3024 0.00253261
3027 0.00296948
3030 0.00478274
3033 0.00660817
3036 0.00655703
3039 0.00430401
3042 0.00288317
3045 0.00279088
3048 0.005328
3051 0.00800231
3054 0.00783706
3057 0.00674928
3060 0.00400257
3063 0.00385196
3066 0.00484991
3069 0.00846264
3072 0.00810821
3075 0.00578865
3078 0.00425267
3081 0.00500387
3084 0.00566934
3087 0.00893088
3090 0.0105778
3093 0.00872358
3096 0.00510636
3099 0.00448693
3102 0.00365221
3105 0.0049777
3108 0.00446889
3111 0.00476678
3114 0.00419166
3117 0.00558898
3120 0.00683777
3123 0.0112723
3126 0.0156991
3129 0.0131275
3132 0.00741661
3135 0.00460528
3138 0.00471973
3141 0.00313267
3144 0.00227836
3147 0.00202848
3150 0.00244293
3153 0.00329352
3156 0.00350888
3159 0.00552785
3162 0.00701642
3165 0.00651035
3168 0.00351005
3171 0.00400173
3174 0.00495997
3177 0.0065358
3180 0.00895853
3183 0.00869599
3186 0.00775233
3189 0.00713263
3192 0.0075267
3195 0.0104581
3198 0.0145243
3201 0.0151589
3204 0.00949354
3207 0.00561434
3210 0.00315651
3213 0.00319578
3216 0.00492091
3219 0.00556406
3222 0.00391725
3225 0.00314545
3228 0.00271601
3231 0.00221528
3234 0.0011469
3237 0.00236378
3240 0.00147468
3243 0.00174436
3246 0.00227574
3249 0.00170639
3252 0.0032613
3255 0.00274029
3258 0.00265709
3261 0.00445751
3264 0.00501276
3267 0.00739342
3270 0.0111142
3273 0.00854642
3276 0.00664738
3279 0.00452714
3282 0.00153658
3285 0.000000000000000000e+00
3288 0.00250175
3291 0.00107397
3294 0.00400772
3297 0.00189776
3300 0.00336759
3303 0.00285818
3306 0.00512373
3309 0.00396125
3312 0.00464432
3315 0.00257255
3318 0.00395016
3321 0.00353089
3324 0.00305673
3327 0.0024821
3330 0.00556205
3333 0.00562664
3336 0.00628757
3339 0.00982213
3342 0.0109714
3345 0.0102289
3348 0.00573826
3351 0.00460308
3354 0.00597586
3357 0.00766679
3360 0.00588455
3363 0.00321626
3366 0.00479543
3369 0.00363928
3372 0.00465577
3375 0.00641031
3378 0.00512552
3381 0.00651172
3384 0.00411574
3387 0.00299308
3390 0.00625315
3393 0.00751587
3396 0.00448029
3399 0.00498263
3402 0.00720478
3405 0.00699799
3408 0.00532184
3411 0.00408994
3414 0.00655459
3417 0.00391126
3420 0.00213728
3423 0.00517477
3426 0.0030907
3429 0.00521013
3432 0.00447092
3435 0.00529777
3438 0.00633235
3441 0.00745789
3444 0.0107223
3447 0.00989722
3450 0.00665081
3453 0.00440457
3456 0.0125815
3459 0.00685319
3462 0.00648055
3465 0.0143516
3468 0.00771632
3471 0.00200472
3474 0.0100249
3477 0.00586063
3480 0.000359078
3483 0.00305214
3486 0.0170805
3487 0.0131132